UncompMagX;UncompMagY;UncompMagZ;UncompAccX;UncompAccY;UncompAccZ;UncompGyroX;UncompGyroY;UncompGyroZ;Temperature;Pressure
-00,158;+00,132;-00,195;-15,0970;-12,3560;+00,1970;-00,856010;-05,552774;-00,179909;+031,90;+101,16
-00,162;+00,130;-00,178;-16,0380;-02,7390;-11,7820;-00,597929;-04,331251;-00,832589;+031,90;+101,17
-00,168;+00,133;-00,176;-12,3230;+07,9930;-30,4020;-00,388039;-03,374759;-00,836239;+031,90;+101,17
-00,171;+00,127;-00,169;-09,0720;+16,5610;-20,6670;-00,227269;-02,603777;-00,057737;+031,90;+101,17
-00,172;+00,130;-00,166;-02,8890;+14,6760;-11,5120;+00,175538;-02,339235;+00,526249;+031,90;+101,17
-00,173;+00,129;-00,158;-01,6320;+05,5640;-10,2160;+00,741085;-02,397742;+00,705781;+031,90;+101,17
-00,173;+00,133;-00,157;-03,7940;-07,0940;-09,1910;+00,980581;-02,422456;+00,536999;+031,90;+101,17
-00,174;+00,131;-00,153;-07,6420;-15,4990;-13,1370;+00,760528;-02,380334;+00,018946;+031,90;+101,17
-00,176;+00,134;-00,152;-10,3910;-11,2800;-15,6980;+00,329154;-02,004500;-00,248238;+031,90;+101,17
-00,178;+00,130;-00,145;-06,2160;-01,2080;-13,6290;-00,039542;-01,626033;-00,172908;+031,90;+101,16
-00,177;+00,132;-00,144;-06,5330;+03,0450;-14,1500;-00,345774;-01,356579;+00,166297;+031,90;+101,17
-00,178;+00,130;-00,136;-05,0300;-03,9150;-12,3810;-00,499785;-01,097159;+00,122828;+031,90;+101,19
-00,179;+00,131;-00,137;-07,6220;-04,8470;-12,1340;-00,866881;-00,791214;+00,125643;+031,90;+101,17
-00,178;+00,131;-00,133;-03,9530;+02,6820;-10,7240;-00,996219;-00,611960;+00,172655;+031,90;+101,17
-00,180;+00,132;-00,135;-03,5120;+02,5530;-10,2960;-00,856004;-00,397209;+00,190199;+031,90;+101,17
-00,178;+00,134;-00,128;-04,0130;-02,2010;-09,2280;-00,902724;-00,344306;+00,172437;+031,90;+101,16
-00,180;+00,136;-00,128;-03,7080;-00,3830;-09,8250;-00,992991;-00,302902;+00,205913;+031,90;+101,17
-00,178;+00,136;-00,125;-04,0740;+02,5550;-10,9850;-00,829547;-00,225375;+00,178167;+031,90;+101,17
-00,178;+00,136;-00,126;-03,7330;+01,2700;-10,3630;-00,638243;-00,170981;+00,110806;+031,90;+101,17
-00,177;+00,135;-00,122;-03,5540;-00,0150;-09,5140;-00,597767;-00,142855;+00,088380;+031,90;+101,17
-00,177;+00,139;-00,123;-03,2610;+00,5840;-09,3950;-00,565884;-00,122947;+00,082867;+031,90;+101,17
-00,178;+00,136;-00,119;-03,2170;+00,8720;-09,6240;-00,519727;-00,124613;+00,060563;+031,90;+101,19
-00,178;+00,137;-00,122;-03,4500;+00,0820;-08,9970;-00,476250;-00,115317;+00,037944;+031,90;+101,17
-00,177;+00,136;-00,119;-02,5480;-00,6810;-07,8790;-00,582868;-00,119679;+00,044604;+031,90;+101,17
-00,178;+00,138;-00,120;-04,2220;+02,1310;-11,1290;-00,365285;-00,107093;+00,006374;+031,90;+101,19
-00,177;+00,140;-00,118;-03,1360;+01,3370;-09,4160;-00,170462;-00,139003;-00,099740;+031,90;+101,17
-00,178;+00,137;-00,118;-03,5260;+00,0450;-09,7930;-00,070412;-00,160357;-00,115549;+031,90;+101,19
-00,178;+00,136;-00,116;-03,9620;+00,2320;-09,8130;-00,053494;-00,132608;-00,088206;+031,90;+101,17
-00,179;+00,137;-00,119;-03,3770;+00,0750;-09,2160;-00,058195;-00,111220;-00,076856;+031,90;+101,17
-00,178;+00,138;-00,115;-03,1990;+00,2880;-09,0290;-00,029259;-00,135228;-00,069816;+031,90;+101,17
-00,178;+00,137;-00,118;-03,3310;+00,2980;-09,1290;-00,006928;-00,154006;-00,072798;+031,90;+101,17
-00,179;+00,136;-00,115;-03,2270;+00,1270;-08,8650;+00,018216;-00,150958;-00,070155;+031,90;+101,16
-00,178;+00,138;-00,116;-02,9140;+00,1720;-08,7350;+00,086080;-00,205150;-00,066203;+031,90;+101,17
-00,178;+00,135;-00,115;-03,3420;+00,1260;-09,0980;+00,137641;-00,257736;-00,055724;+031,90;+101,17
-00,180;+00,137;-00,113;-03,4410;+00,2530;-09,0320;+00,153607;-00,263880;-00,052943;+031,90;+101,16
-00,179;+00,136;-00,114;-03,4370;+00,1890;-09,0140;+00,170147;-00,281832;-00,053373;+031,90;+101,17
-00,179;+00,136;-00,115;-03,7510;+00,1830;-09,1490;+00,157430;-00,269628;-00,046817;+031,90;+101,17
-00,180;+00,135;-00,111;-03,5910;+00,1440;-09,0430;+00,149569;-00,260619;-00,041954;+031,90;+101,17
-00,181;+00,137;-00,112;-03,5000;+00,2570;-09,1120;+00,106144;-00,260872;-00,047952;+031,90;+101,17
-00,179;+00,134;-00,112;-03,6500;-00,0120;-09,1030;+00,061355;-00,245404;-00,033693;+031,90;+101,17
-00,180;+00,136;-00,113;-03,7230;+00,1820;-09,0170;+00,039929;-00,227676;-00,030424;+031,90;+101,17
-00,180;+00,136;-00,112;-03,3940;-00,0370;-08,8210;+00,053560;-00,220116;-00,027414;+031,90;+101,17
-00,180;+00,138;-00,113;-03,3420;-00,0330;-08,8340;+00,077403;-00,229516;-00,017284;+031,90;+101,17
-00,181;+00,136;-00,111;-03,6010;+00,0400;-08,8830;+00,092196;-00,215928;-00,008914;+031,90;+101,17
-00,181;+00,138;-00,111;-03,4850;-00,0460;-08,8790;+00,110661;-00,194328;-00,002135;+031,90;+101,19
-00,179;+00,136;-00,111;-03,5460;+00,0100;-08,9010;+00,120121;-00,188794;+00,009184;+031,90;+101,17
-00,179;+00,138;-00,113;-03,6500;+00,0740;-08,8960;+00,129373;-00,210596;+00,014342;+031,90;+101,17
-00,179;+00,135;-00,107;-03,5150;+00,0820;-08,8010;+00,135720;-00,218406;+00,011464;+031,90;+101,16
-00,181;+00,136;-00,110;-03,5310;+00,0590;-08,8230;+00,124743;-00,249836;+00,011610;+031,90;+101,17
-00,180;+00,135;-00,110;-03,9720;-00,1180;-08,8830;+00,111461;-00,238442;+00,019288;+031,90;+101,16
-00,180;+00,136;-00,111;-03,9160;+00,0790;-08,8930;+00,099183;-00,184584;+00,019361;+031,90;+101,16
-00,180;+00,137;-00,110;-03,8170;-00,0390;-08,8970;+00,092392;-00,162103;+00,021051;+031,90;+101,17
-00,181;+00,137;-00,111;-03,6850;+00,0590;-08,8210;+00,097868;-00,164950;+00,022911;+031,90;+101,17
-00,180;+00,136;-00,108;-03,7960;+00,0120;-08,9150;+00,092334;-00,180379;+00,024937;+031,90;+101,17
-00,180;+00,137;-00,108;-03,5980;+00,0920;-08,8190;+00,058680;-00,195064;+00,023027;+031,90;+101,18
-00,180;+00,138;-00,109;-03,5740;-00,0140;-08,8300;+00,015197;-00,250133;+00,015522;+031,90;+101,17
-00,180;+00,138;-00,108;-04,0400;-00,0060;-08,9510;-00,013174;-00,292739;+00,018765;+031,90;+101,19
-00,180;+00,135;-00,108;-04,0390;+00,0360;-08,9130;-00,036491;-00,309153;+00,020657;+031,90;+101,17
-00,179;+00,139;-00,108;-03,9280;+00,1320;-08,8320;-00,071570;-00,341134;+00,023961;+031,90;+101,19
-00,179;+00,137;-00,105;-04,3940;+00,0030;-08,8060;-00,148212;-00,395454;-00,008627;+031,90;+101,16
-00,181;+00,137;-00,105;-04,1730;+00,1390;-08,7750;-00,226885;-00,466336;-00,026946;+031,90;+101,17
-00,180;+00,135;-00,101;-04,1360;+00,1280;-08,8560;-00,235562;-00,496380;-00,032185;+031,90;+101,19
-00,181;+00,137;-00,105;-03,8760;+00,1210;-08,8070;-00,215689;-00,537371;-00,059056;+031,90;+101,17
-00,180;+00,136;-00,099;-04,1900;+00,1110;-08,9740;-00,170402;-00,590105;-00,074227;+031,90;+101,17
-00,180;+00,138;-00,100;-04,2170;+00,1350;-08,9180;-00,133243;-00,672449;-00,099534;+031,90;+101,17
-00,181;+00,136;-00,095;-04,2110;+00,1340;-08,8970;-00,079676;-00,829550;-00,127289;+031,90;+101,17
-00,180;+00,137;-00,097;-04,4420;+00,1460;-08,9960;-00,036977;-00,892886;-00,121705;+031,90;+101,16
-00,181;+00,135;-00,095;-03,9030;+00,2150;-08,6420;+00,003855;-00,881081;-00,159663;+031,90;+101,17
-00,181;+00,135;-00,093;-04,1270;-00,0190;-08,7190;-00,021416;-00,978304;-00,115377;+031,90;+101,17
-00,181;+00,135;-00,090;-04,5230;-00,2180;-08,7250;+00,037388;-01,238011;-00,030175;+031,90;+101,17
-00,181;+00,136;-00,087;-03,5900;+00,3990;-08,3190;-00,018305;-01,401976;+00,068503;+031,90;+101,17
-00,181;+00,136;-00,082;-04,2500;-00,6140;-08,5260;+00,066799;-01,814646;+00,133987;+031,90;+101,17
-00,180;+00,136;-00,082;-03,1950;-00,6990;-09,2350;-00,230509;-02,482453;+00,211544;+031,90;+101,19
-00,178;+00,135;-00,071;-03,3530;-01,5540;-10,7880;-00,554163;-03,288442;+00,323918;+031,90;+101,17
-00,177;+00,138;-00,066;-08,0100;-00,5340;-09,9890;-00,825406;-04,439763;+00,421316;+031,90;+101,17
-00,174;+00,139;-00,053;-03,5510;+00,6450;-11,3000;-01,057788;-05,385335;+00,637768;+031,90;+101,17
-00,172;+00,139;-00,046;-04,4810;+01,1720;-15,8550;-01,178608;-06,518861;+00,619209;+031,90;+101,19
-00,163;+00,140;-00,025;-08,5540;+01,1710;-12,9620;-01,628626;-07,766521;+00,621534;+031,90;+101,19
-00,160;+00,140;-00,012;-08,9900;+01,4770;-20,4740;-01,071173;-08,032217;+00,380588;+031,90;+101,16
-00,150;+00,139;+00,005;-08,1710;+02,4290;-31,4120;-00,465832;-06,430500;+00,057386;+031,90;+101,17
-00,144;+00,139;+00,016;-06,5390;+01,4340;-20,0270;-00,325603;-06,576763;-00,205950;+031,90;+101,17
-00,136;+00,139;+00,027;-02,9590;-00,7410;-15,3940;-00,943427;-06,257642;-00,252013;+031,90;+101,17
-00,131;+00,138;+00,034;-01,2530;+00,0980;-09,2270;-01,186664;-05,950645;+00,348759;+031,90;+101,16
-00,119;+00,135;+00,048;-41,4920;+05,1100;-35,0600;-00,222664;-03,965349;+01,186313;+031,90;+101,18
-00,114;+00,140;+00,049;-08,0160;+03,9170;-33,4600;-00,427738;-01,835426;+01,404741;+031,90;+101,17
-00,108;+00,142;+00,053;-03,6400;+01,7800;-20,8280;+00,182531;-01,180912;+01,626347;+031,90;+101,19
-00,105;+00,145;+00,054;-01,5950;-01,0520;-12,8550;+00,277974;-00,909075;+01,722048;+031,90;+101,17
-00,100;+00,147;+00,053;-01,5740;-04,0460;-11,4420;+00,017011;-00,944877;+01,708167;+031,90;+101,16
-00,097;+00,150;+00,055;-03,4570;-05,5250;-14,0030;-00,286517;-00,562288;+01,539641;+031,90;+101,17
-00,093;+00,149;+00,056;-03,2840;-05,6210;-14,5950;-00,404509;+00,001456;+01,208604;+031,90;+101,17
-00,092;+00,151;+00,057;-02,2080;-05,5440;-13,1190;-00,408868;+00,503622;+00,846670;+031,90;+101,17
-00,091;+00,151;+00,057;-01,8290;-05,0000;-11,6410;-00,329482;+00,892349;+00,490575;+031,90;+101,17
-00,092;+00,153;+00,055;-01,6210;-04,1580;-10,1440;-00,199439;+01,255493;+00,099043;+031,90;+101,17
-00,094;+00,152;+00,054;-01,3380;-02,9340;-09,2600;-00,094422;+01,562480;-00,183303;+031,90;+101,17
-00,096;+00,153;+00,053;-01,7670;-00,8170;-09,6750;+00,040185;+01,881745;-00,335121;+031,90;+101,17
-00,101;+00,154;+00,047;-01,7180;+00,8350;-08,8870;+00,190269;+02,239765;-00,334688;+031,90;+101,17
-00,103;+00,154;+00,043;-01,5310;+01,3350;-07,4140;+00,246987;+02,539618;-00,185206;+031,90;+101,17
-00,108;+00,152;+00,039;-01,2000;+01,6920;-06,0210;+00,296682;+02,739250;-00,009393;+031,90;+101,16
-00,111;+00,153;+00,034;-01,2280;+01,3440;-05,5860;+00,357521;+02,860830;+00,126916;+031,90;+101,17
-00,115;+00,155;+00,033;-01,5780;+00,7730;-05,9720;+00,442648;+02,994227;+00,203131;+031,90;+101,16
-00,116;+00,156;+00,027;-01,8310;+00,3660;-05,9660;+00,541947;+03,177313;+00,229712;+031,90;+101,17
-00,120;+00,158;+00,020;-02,0550;+00,2030;-05,6910;+00,670945;+03,356853;+00,220918;+031,90;+101,18
-00,124;+00,159;+00,015;-02,2780;-00,1130;-05,2090;+00,803348;+03,500290;+00,183167;+031,90;+101,17
-00,128;+00,161;+00,010;-02,5970;-00,5780;-05,2990;+00,905046;+03,588168;+00,111764;+031,90;+101,16
-00,131;+00,164;+00,002;-03,2290;-01,1600;-05,7150;+00,976198;+03,711707;-00,027309;+031,90;+101,16
-00,134;+00,164;-00,008;-03,4630;-01,5740;-06,1360;+01,035952;+03,837699;-00,200294;+031,90;+101,17
-00,138;+00,166;-00,015;-03,7590;-01,6070;-05,8520;+01,112674;+03,970653;-00,405812;+031,90;+101,17
-00,142;+00,165;-00,023;-03,6010;-01,3830;-05,0770;+01,167862;+04,050858;-00,615822;+031,90;+101,17
-00,145;+00,166;-00,031;-03,8430;-00,8810;-04,9960;+01,205346;+04,065973;-00,787706;+031,90;+101,16
-00,150;+00,165;-00,041;-04,1360;-00,3890;-05,4240;+01,214833;+04,078022;-00,925872;+031,90;+101,17
-00,152;+00,166;-00,049;-04,4070;+00,3840;-05,4520;+01,227665;+04,073563;-01,037041;+031,90;+101,17
-00,156;+00,163;-00,061;-04,3300;+01,5080;-05,3090;+01,259091;+04,023484;-01,107220;+031,90;+101,17
-00,158;+00,163;-00,070;-04,7210;+03,2280;-06,5550;+01,351928;+03,932484;-01,108232;+031,90;+101,17
-00,161;+00,159;-00,080;-05,2800;+04,3330;-08,4400;+01,400281;+03,936219;-01,019860;+031,90;+101,17
-00,163;+00,159;-00,087;-06,1420;+04,5680;-10,6990;+01,337774;+04,020328;-00,828793;+031,90;+101,17
-00,164;+00,158;-00,100;-07,4310;+04,4870;-12,0540;+01,266374;+04,185018;-00,629871;+031,90;+101,17
-00,165;+00,158;-00,110;-08,5280;+03,4130;-12,1890;+01,165321;+04,340304;-00,490333;+031,90;+101,16
-00,164;+00,156;-00,117;-09,8510;+02,0970;-12,1850;+01,070797;+04,501430;-00,486502;+031,90;+101,17
-00,164;+00,155;-00,129;-10,9280;+00,6230;-12,6390;+00,956922;+04,630413;-00,597835;+031,90;+101,17
-00,163;+00,153;-00,139;-11,8060;-00,1350;-11,7030;+00,834368;+04,734019;-00,786606;+031,90;+101,17
-00,163;+00,152;-00,150;-12,5830;+01,2560;-10,0310;+00,784855;+04,622622;-00,991812;+031,90;+101,17
-00,160;+00,148;-00,161;-15,1560;+02,8430;-11,2930;+00,765647;+04,405344;-01,097783;+031,90;+101,16
-00,161;+00,148;-00,170;-17,0320;+03,8400;-12,0500;+00,643670;+04,273727;-01,097511;+031,90;+101,17
-00,157;+00,143;-00,176;-17,1980;+04,8890;-10,5650;+00,425153;+04,103216;-00,964703;+031,90;+101,17
-00,156;+00,145;-00,185;-16,1220;+06,0200;-08,2580;+00,196228;+03,778729;-00,699072;+031,90;+101,19
-00,153;+00,141;-00,191;-15,4620;+05,7640;-06,9850;+00,118854;+03,354158;-00,385309;+031,90;+101,17
-00,150;+00,142;-00,197;-15,0390;+02,7820;-07,0310;+00,126643;+02,909115;-00,175402;+031,90;+101,17
-00,148;+00,140;-00,201;-16,0260;-01,4960;-07,3380;+00,022955;+02,527086;-00,189620;+031,90;+101,17
-00,145;+00,142;-00,206;-17,2110;-03,9920;-05,8730;-00,077446;+02,221718;-00,445270;+031,90;+101,16
-00,143;+00,139;-00,209;-17,3510;-04,8920;-03,3840;-00,148930;+01,839792;-00,758579;+031,90;+101,17
-00,143;+00,140;-00,211;-17,3250;-03,2480;-00,9040;-00,147034;+01,403589;-01,013564;+031,90;+101,17
-00,144;+00,137;-00,214;-16,3860;+00,2740;+01,3290;-00,020549;+00,821763;-01,044845;+031,90;+101,17
-00,143;+00,137;-00,216;-15,6650;+04,9000;+02,2640;+00,241811;+00,122200;-00,747679;+031,90;+101,17
-00,144;+00,134;-00,214;-15,3530;+07,5890;+00,8030;+00,536242;-00,549019;-00,183386;+031,90;+101,16
-00,145;+00,135;-00,217;-15,2440;+07,6910;-01,7780;+00,640536;-01,032053;+00,459938;+031,90;+101,17
-00,145;+00,134;-00,212;-05,9710;-03,5130;+07,9680;-00,578191;-02,002877;-00,185106;+031,90;+101,17
-00,148;+00,137;-00,209;-10,5990;+03,8580;-18,0500;-01,006340;-01,958105;+00,985860;+031,90;+101,17
-00,150;+00,137;-00,202;+17,7350;+00,1900;-16,2480;-00,316442;-02,198042;+00,408942;+031,90;+101,17
-00,152;+00,141;-00,201;+05,2440;-01,4810;-09,3210;+00,011275;-03,639091;+00,235414;+031,90;+101,17
-00,155;+00,139;-00,190;-10,8780;-05,4230;-06,4970;-00,525413;-03,679015;+00,233040;+031,90;+101,17
-00,158;+00,139;-00,187;-10,8900;+00,2400;-13,5990;-00,789651;-03,070296;+00,132978;+031,90;+101,16
-00,161;+00,142;-00,178;-05,8560;+02,5580;-20,5240;-00,371940;-02,681347;-00,041894;+031,90;+101,17
-00,162;+00,144;-00,174;-03,5530;+04,8520;-12,0470;-00,118938;-02,415719;+00,128928;+031,90;+101,17
-00,164;+00,141;-00,168;-01,7170;+05,0510;-08,7740;+00,182509;-02,452909;+00,238994;+031,90;+101,17
-00,166;+00,145;-00,166;-02,8320;+02,2460;-11,0360;+00,454453;-02,453424;+00,281421;+031,90;+101,17
-00,167;+00,142;-00,162;-04,4010;-01,9380;-11,8480;+00,452170;-02,402937;+00,278882;+031,90;+101,17
-00,168;+00,145;-00,157;-06,6250;-06,4350;-12,9460;+00,256613;-02,172132;+00,192711;+031,90;+101,17
-00,170;+00,143;-00,154;-07,5800;-08,7360;-14,2630;-00,185597;-01,981615;+00,013869;+031,90;+101,17
-00,169;+00,145;-00,148;-06,7140;-07,0510;-14,6880;-00,915496;-01,717003;+00,026091;+031,90;+101,17
-00,170;+00,145;-00,146;-06,1080;-00,1610;-13,3480;-01,226174;-01,405809;+00,118242;+031,90;+101,17
-00,172;+00,146;-00,141;-04,5060;+02,9820;-11,4380;-01,107550;-01,134189;+00,158507;+031,90;+101,17
-00,171;+00,145;-00,136;-06,0570;+00,6170;-12,4700;-01,005445;-00,926277;+00,121973;+031,90;+101,17
-00,171;+00,149;-00,135;-04,6970;-01,2030;-10,5160;-01,090908;-00,637091;+00,160797;+031,90;+101,17
-00,170;+00,148;-00,131;-03,5310;+00,9010;-09,7830;-01,158599;-00,518700;+00,198971;+031,90;+101,17
-00,172;+00,149;-00,129;-02,9520;+03,7080;-12,7800;-00,914017;-00,437881;+00,202658;+031,90;+101,16
-00,170;+00,148;-00,127;-06,5410;+04,6010;-11,4790;-00,157173;-00,207229;+00,029035;+031,90;+101,16
-00,170;+00,149;-00,127;-02,8600;-01,0190;-09,6500;-00,025692;-00,359003;-00,066000;+031,90;+101,17
-00,172;+00,148;-00,124;-03,9900;+01,3440;-10,2740;-00,031541;-00,175381;-00,042485;+031,90;+101,16
-00,172;+00,150;-00,127;-03,4380;+00,7990;-09,6120;+00,014013;-00,141600;-00,078551;+031,90;+101,19
-00,171;+00,148;-00,124;-03,3990;+00,3030;-09,5760;-00,011311;-00,062757;-00,073240;+031,90;+101,17
-00,171;+00,149;-00,126;-03,4300;+00,4570;-09,5140;-00,037909;+00,008730;-00,057663;+031,90;+101,17
-00,171;+00,146;-00,125;-03,3220;+00,4120;-09,4500;-00,056688;+00,059449;-00,052510;+031,90;+101,17
-00,173;+00,147;-00,126;-03,0850;+00,1170;-09,1050;-00,064677;+00,076335;-00,043028;+031,90;+101,17
-00,171;+00,147;-00,126;-03,0420;+00,2900;-09,1830;-00,081769;+00,085083;-00,026827;+031,90;+101,17
-00,171;+00,149;-00,125;-03,0900;+00,3920;-09,2220;-00,106063;+00,099379;-00,017346;+031,90;+101,17
-00,172;+00,146;-00,127;-02,9790;+00,3750;-09,0870;-00,124688;+00,107097;-00,015469;+031,90;+101,17
-00,171;+00,150;-00,127;-02,9660;+00,5020;-09,0990;-00,132592;+00,094786;-00,016651;+031,90;+101,17
-00,171;+00,146;-00,124;-02,9090;+00,3790;-09,0880;-00,132301;+00,079057;-00,021721;+031,90;+101,17
-00,173;+00,149;-00,125;-02,9790;+00,3080;-09,1110;-00,125566;+00,066298;-00,019832;+031,90;+101,16
-00,172;+00,145;-00,127;-02,9270;+00,3160;-09,0270;-00,109159;+00,046190;-00,018871;+031,90;+101,17
-00,172;+00,147;-00,124;-03,0650;+00,4970;-09,2380;-00,093792;+00,034793;-00,015267;+031,90;+101,17
-00,172;+00,148;-00,125;-03,1680;+00,4060;-09,2380;-00,102277;+00,074502;-00,009494;+031,90;+101,18
-00,172;+00,150;-00,123;-02,6270;+00,5820;-08,8540;-00,088080;+00,056235;-00,010273;+031,90;+101,17
-00,171;+00,147;-00,123;-02,6300;+00,5760;-08,7980;-00,056589;+00,005597;-00,020718;+031,90;+101,17
-00,171;+00,148;-00,123;-02,6930;+00,4330;-08,8540;-00,023984;-00,049936;-00,027086;+031,90;+101,17
-00,171;+00,148;-00,122;-02,2220;+00,5560;-08,2920;+00,040865;-00,140294;-00,035867;+031,90;+101,17
-00,172;+00,146;-00,125;-02,6380;+00,3550;-08,9160;+00,069713;-00,264016;-00,032833;+031,90;+101,19
-00,173;+00,147;-00,123;-03,1370;+00,1970;-09,0600;+00,055610;-00,294750;-00,021784;+031,90;+101,17
-00,172;+00,150;-00,122;-02,6070;+00,6790;-08,7040;+00,099589;-00,342147;-00,032317;+031,90;+101,17
-00,172;+00,145;-00,123;-03,0900;+00,3250;-09,1260;+00,135148;-00,398607;-00,034442;+031,90;+101,16
-00,172;+00,148;-00,122;-03,1960;+00,4350;-09,0770;+00,147024;-00,386495;-00,031125;+031,90;+101,17
-00,172;+00,146;-00,122;-03,0730;+00,6250;-08,9280;+00,195434;-00,391191;-00,046609;+031,90;+101,17
-00,174;+00,148;-00,121;-03,2330;+00,2640;-09,0450;+00,243423;-00,410137;-00,055915;+031,90;+101,17
-00,173;+00,146;-00,120;-03,0880;+00,3880;-08,8510;+00,284456;-00,424414;-00,060486;+031,90;+101,17
-00,172;+00,146;-00,122;-02,9030;+00,2670;-08,8380;+00,338388;-00,493533;-00,071703;+031,90;+101,16
-00,173;+00,146;-00,119;-03,1430;+00,1000;-08,8680;+00,382548;-00,542110;-00,073824;+031,90;+101,17
-00,173;+00,146;-00,119;-03,2090;+00,0270;-09,0470;+00,384174;-00,575840;-00,071282;+031,90;+101,16
-00,174;+00,147;-00,120;-03,3400;+00,2820;-09,0170;+00,341117;-00,579790;-00,070538;+031,90;+101,17
-00,174;+00,148;-00,118;-03,6800;+00,2470;-09,1800;+00,301260;-00,538899;-00,055714;+031,90;+101,17
-00,175;+00,145;-00,117;-03,6380;+00,2060;-09,1070;+00,252073;-00,496164;-00,047044;+031,90;+101,17
-00,173;+00,147;-00,117;-03,5730;+00,1230;-08,8540;+00,212270;-00,465088;-00,032241;+031,90;+101,17
-00,175;+00,146;-00,116;-03,4870;+00,3280;-08,8330;+00,190112;-00,458127;-00,030928;+031,90;+101,17
-00,174;+00,145;-00,116;-03,7370;+00,1040;-08,9980;+00,165363;-00,439004;-00,022908;+031,90;+101,17
-00,174;+00,145;-00,117;-03,8860;+00,2610;-09,0160;+00,155897;-00,415033;-00,028252;+031,90;+101,17
-00,175;+00,148;-00,115;-03,8460;+00,1260;-08,9680;+00,137185;-00,366117;-00,029269;+031,90;+101,17
-00,175;+00,146;-00,113;-03,9770;+00,0310;-09,0290;+00,126280;-00,331808;-00,028229;+031,90;+101,17
-00,175;+00,146;-00,113;-03,8000;-00,0800;-08,9080;+00,134059;-00,359463;-00,033952;+031,90;+101,17
-00,176;+00,142;-00,114;-03,8070;+00,0490;-08,7920;+00,129114;-00,387039;-00,037708;+031,90;+101,17
-00,174;+00,144;-00,113;-03,5650;+00,2020;-08,6240;+00,099484;-00,425035;-00,051122;+031,90;+101,17
-00,176;+00,146;-00,110;-03,8040;-00,0100;-08,7520;+00,017987;-00,477381;-00,051012;+031,90;+101,17
-00,175;+00,147;-00,112;-03,9510;+00,0080;-08,8180;-00,091713;-00,551043;-00,039212;+031,90;+101,19
-00,175;+00,143;-00,110;-04,0740;+00,0750;-08,8100;-00,197207;-00,620542;-00,007690;+031,90;+101,17
-00,175;+00,145;-00,109;-03,9900;+00,1330;-08,7140;-00,290729;-00,667074;+00,040395;+031,90;+101,17
-00,176;+00,146;-00,106;-04,9600;+00,4680;-08,8520;-00,396874;-00,692268;+00,018118;+031,90;+101,16
-00,176;+00,147;-00,104;-04,4370;+00,1010;-08,9670;-00,444194;-00,820833;+00,011148;+031,90;+101,16
-00,177;+00,146;-00,102;-04,5600;+00,1710;-09,0050;-00,375930;-00,767760;+00,000472;+031,90;+101,17
-00,176;+00,146;-00,100;-04,3410;+00,2410;-08,9700;-00,302878;-00,725353;-00,027027;+031,90;+101,17
-00,176;+00,145;-00,097;-04,5110;+00,1270;-09,0420;-00,204512;-00,771543;-00,035650;+031,90;+101,16
-00,176;+00,149;-00,098;-04,4410;+00,1920;-08,8210;-00,121759;-00,843941;-00,060984;+031,90;+101,17
-00,176;+00,144;-00,094;-04,6000;+00,0330;-08,7670;-00,038077;-00,922601;-00,062344;+031,90;+101,17
-00,177;+00,148;-00,093;-04,1210;-00,0630;-08,6860;+00,012196;-00,986616;-00,000374;+031,90;+101,17
-00,176;+00,145;-00,090;-02,8730;+00,3140;-08,0870;-00,108790;-01,323497;+00,160639;+031,90;+101,17
-00,177;+00,149;-00,088;-04,1510;-00,9020;-08,8320;-00,156243;-02,021393;+00,276108;+031,90;+101,17
-00,175;+00,149;-00,081;-01,5790;-00,6000;-09,7690;-00,553473;-02,722833;+00,327638;+031,90;+101,17
-00,174;+00,147;-00,076;-06,5800;-00,4530;-09,1540;-00,731573;-04,055522;+00,492787;+031,90;+101,19
-00,170;+00,147;-00,064;-01,1090;+00,3370;-10,0970;-00,819732;-05,329312;+00,775747;+031,90;+101,16
-00,168;+00,149;-00,055;-05,4520;+00,1170;-12,2580;-01,330521;-06,700277;+00,764549;+031,90;+101,17
-00,163;+00,151;-00,035;-05,6510;+01,4020;-15,5050;-01,938042;-08,377893;+00,635088;+031,90;+101,16
-00,156;+00,151;-00,021;-08,6360;+01,5740;-16,1490;-02,080407;-08,950436;+00,392509;+031,90;+101,17
-00,147;+00,148;+00,003;-13,1060;+03,3030;-25,1900;-01,432959;-08,368224;-00,063174;+031,90;+101,17
-00,140;+00,148;+00,014;-13,5800;+01,6520;-28,2200;-00,208617;-07,447564;-00,530656;+031,90;+101,16
-00,131;+00,145;+00,029;-07,3100;-00,1580;-24,1610;-00,284610;-06,774047;-00,151778;+031,90;+101,17
-00,125;+00,146;+00,035;+02,9070;+01,6820;-17,4820;-00,406091;-06,745075;-00,383893;+031,90;+101,17
-00,114;+00,146;+00,048;-17,6370;+07,6370;-07,3390;-00,341276;-06,100531;+00,600060;+031,90;+101,16
-00,107;+00,149;+00,053;-35,0810;+04,4740;-33,0970;-00,082397;-02,720807;+01,328900;+031,90;+101,17
-00,100;+00,146;+00,057;-07,0260;+02,4400;-32,3870;+00,198586;-01,503869;+01,328382;+031,90;+101,17
-00,097;+00,150;+00,055;-06,5080;+00,6730;-20,8080;+00,564213;-00,422858;+01,388519;+031,90;+101,17
-00,095;+00,154;+00,057;-04,3430;-00,9490;-11,7290;+00,620340;-00,207145;+01,368463;+031,90;+101,17
-00,091;+00,154;+00,052;-04,8970;-02,4430;-06,6980;+00,392517;-00,322673;+01,361804;+031,90;+101,18
-00,089;+00,157;+00,054;-05,0410;-02,2790;-05,6480;+00,113573;-00,276120;+01,279332;+031,90;+101,17
-00,087;+00,159;+00,054;-05,3040;-02,3160;-06,3350;-00,009380;-00,297941;+01,182276;+031,90;+101,17
-00,084;+00,159;+00,054;-05,5770;-02,5280;-08,1020;-00,096147;-00,167968;+01,063246;+031,90;+101,17
-00,083;+00,161;+00,053;-05,6960;-02,3150;-10,7570;-00,039556;+00,128066;+00,897374;+031,90;+101,17
-00,082;+00,162;+00,056;-06,6850;-02,2560;-12,5900;+00,133372;+00,687443;+00,684631;+031,90;+101,17
-00,081;+00,165;+00,054;-05,2030;-02,8500;-09,8090;+00,203291;+01,334078;+00,456158;+031,90;+101,16
-00,083;+00,163;+00,053;-02,3970;-02,9210;-05,3230;+00,205528;+01,648565;+00,242886;+031,90;+101,17
-00,084;+00,164;+00,049;-01,3450;-02,3810;-02,5700;+00,185771;+01,714517;+00,028427;+031,90;+101,17
-00,088;+00,167;+00,048;-01,3130;-02,1710;-03,2340;+00,201316;+01,728082;-00,134423;+031,90;+101,16
-00,090;+00,167;+00,046;-03,3030;-02,1880;-07,8750;+00,299583;+01,919652;-00,359763;+031,90;+101,17
-00,094;+00,163;+00,042;-05,1880;-01,4570;-09,9700;+00,451450;+02,467983;-00,703480;+031,90;+101,16
-00,098;+00,167;+00,037;-03,9060;-00,1230;-07,2560;+00,444306;+02,932514;-00,853066;+031,90;+101,19
-00,105;+00,163;+00,034;-02,7250;+02,4970;-03,8550;+00,403894;+03,127831;-00,759839;+031,90;+101,16
-00,109;+00,164;+00,029;-01,7960;+04,5210;-01,9220;+00,492703;+03,113484;-00,512876;+031,90;+101,16
-00,114;+00,163;+00,025;-01,5560;+05,0620;-02,0120;+00,648880;+03,076235;-00,178592;+031,90;+101,17
-00,118;+00,165;+00,017;-02,0730;+04,1330;-03,0740;+00,828820;+03,132495;+00,104786;+031,90;+101,17
-00,122;+00,168;+00,011;-02,3910;+02,4970;-03,4720;+00,918806;+03,281764;+00,300504;+031,90;+101,16
-00,123;+00,166;+00,006;-02,2030;+01,2740;-02,5840;+00,946584;+03,440803;+00,396274;+031,90;+101,16
-00,127;+00,169;-00,003;-02,1540;+00,5560;-01,8300;+01,018778;+03,521494;+00,417110;+031,90;+101,17
-00,129;+00,173;-00,009;-02,0110;-00,3420;-01,2880;+01,108731;+03,561066;+00,343526;+031,90;+101,16
-00,133;+00,173;-00,016;-01,9620;-01,2600;-01,0570;+01,184514;+03,570890;+00,192730;+031,90;+101,17
-00,135;+00,175;-00,023;-01,8320;-01,9180;-00,9790;+01,220215;+03,557353;-00,015048;+031,90;+101,16
-00,136;+00,174;-00,033;-02,0080;-01,7330;-01,3770;+01,275118;+03,541067;-00,258093;+031,90;+101,17
-00,140;+00,175;-00,040;-02,3570;-01,5900;-02,3890;+01,364250;+03,558475;-00,508062;+031,90;+101,17
-00,143;+00,174;-00,049;-03,2050;-01,7370;-03,8670;+01,436216;+03,658525;-00,778101;+031,90;+101,17
-00,144;+00,174;-00,056;-03,7300;-01,1810;-04,6140;+01,484442;+03,797737;-01,079336;+031,90;+101,17
-00,150;+00,173;-00,067;-03,8440;+00,0530;-04,7350;+01,466497;+03,927231;-01,313892;+031,90;+101,17
-00,152;+00,170;-00,074;-03,8060;+01,6430;-04,9400;+01,399840;+04,011648;-01,423751;+031,90;+101,17
-00,156;+00,166;-00,083;-03,8130;+03,7900;-05,0700;+01,358978;+04,066948;-01,419428;+031,90;+101,16
-00,158;+00,168;-00,094;-03,9930;+05,8260;-05,4700;+01,376665;+04,098467;-01,278192;+031,90;+101,17
-00,161;+00,164;-00,105;-04,6570;+07,0080;-06,2800;+01,384096;+04,144099;-01,030885;+031,90;+101,17
-00,161;+00,162;-00,113;-05,2190;+07,7240;-06,8080;+01,330066;+04,206242;-00,725597;+031,90;+101,17
-00,162;+00,160;-00,124;-05,6060;+07,8900;-06,8840;+01,187267;+04,230384;-00,363167;+031,90;+101,17
-00,160;+00,160;-00,133;-06,3020;+07,2050;-08,0650;+01,017664;+04,166886;-00,012091;+031,90;+101,17
-00,157;+00,157;-00,144;-07,7550;+05,1220;-11,1290;+00,890666;+04,145251;+00,207314;+031,90;+101,17
-00,156;+00,162;-00,153;-09,4550;+02,3210;-14,0200;+00,805172;+04,265718;+00,199537;+031,90;+101,19
-00,152;+00,159;-00,163;-10,3960;-00,6850;-14,4480;+00,694355;+04,417148;-00,036518;+031,90;+101,16
-00,150;+00,159;-00,169;-10,8240;-02,8410;-13,3540;+00,564475;+04,445385;-00,449635;+031,90;+101,17
-00,147;+00,156;-00,180;-11,8810;-03,4910;-12,6100;+00,455048;+04,363170;-00,951188;+031,90;+101,17
-00,146;+00,155;-00,186;-12,5890;-02,5390;-11,7640;+00,364645;+04,234103;-01,422079;+031,90;+101,16
-00,143;+00,151;-00,195;-13,4350;-01,3680;-10,7440;+00,252075;+04,015815;-01,761866;+031,90;+101,16
-00,142;+00,150;-00,203;-14,5570;+00,4080;-09,7340;+00,089342;+03,750799;-01,966832;+031,90;+101,17
-00,141;+00,145;-00,207;-15,6130;+02,4700;-08,6460;-00,047221;+03,396948;-02,010929;+031,90;+101,16
-00,141;+00,143;-00,210;-16,4220;+03,4230;-08,2620;-00,235309;+02,918045;-01,848503;+031,90;+101,16
-00,139;+00,138;-00,216;-17,0130;+03,0040;-07,9530;-00,438039;+02,415025;-01,585789;+031,90;+101,17
-00,140;+00,138;-00,220;-16,6600;+02,2500;-06,5320;-00,524808;+01,849453;-01,277662;+031,90;+101,17
-00,139;+00,138;-00,219;-17,3600;+02,6240;-05,2840;-00,422092;+01,343961;-00,944466;+031,90;+101,17
-00,139;+00,137;-00,221;-17,8580;+02,4620;-02,7830;-00,159161;+00,807448;-00,611685;+031,90;+101,16
-00,138;+00,133;-00,222;-17,0870;+01,4270;-00,8270;-00,052474;+00,209210;-00,189978;+031,90;+101,16
-00,140;+00,134;-00,222;-16,7550;+00,8580;-01,2150;-00,008226;-00,420526;+00,188450;+031,90;+101,17
-00,138;+00,135;-00,220;-15,6850;+00,5410;-01,9210;+00,071826;-00,948164;+00,497455;+031,90;+101,17
-00,140;+00,135;-00,221;+01,0300;-00,4690;-02,4100;+00,129492;-01,069610;+00,432757;+031,90;+101,17
-00,142;+00,136;-00,216;+13,2670;-03,8360;-20,2660;-00,457787;-01,715619;+00,889035;+031,90;+101,17
-00,144;+00,137;-00,215;+34,6450;-05,3170;-03,1660;+00,438004;-04,424687;+00,555576;+031,90;+101,16
-00,149;+00,138;-00,208;-19,5920;-09,0160;+04,9100;-00,204962;-05,332000;+00,133990;+031,90;+101,17
-00,154;+00,139;-00,199;-21,3170;+01,3420;-19,1890;-01,004422;-03,938432;-00,041442;+031,90;+101,17
-00,157;+00,136;-00,187;-10,4900;+10,2380;-33,5820;-00,458758;-03,056487;-00,164759;+031,90;+101,20
-00,159;+00,139;-00,185;-03,9810;+12,7240;-12,8920;-00,176714;-02,762761;+00,518442;+031,90;+101,17
-00,160;+00,141;-00,178;-01,7100;+07,5030;-09,4250;+00,291310;-02,797803;+00,766163;+031,90;+101,17
-00,162;+00,144;-00,173;-02,4560;-01,8360;-08,3680;+00,589497;-02,797370;+00,711601;+031,90;+101,17
-00,164;+00,143;-00,170;-04,1840;-08,3110;-07,5350;+00,182768;-02,871935;+00,664062;+031,90;+101,17
-00,165;+00,145;-00,165;-04,9960;-11,5850;-06,1620;-00,127472;-02,898537;+00,297091;+031,90;+101,18
-00,167;+00,143;-00,158;-04,9420;-10,4610;-06,7970;-00,618552;-02,848437;+00,008103;+031,90;+101,17
-00,167;+00,146;-00,152;-00,3660;-14,2350;-18,1040;-02,623115;-02,811312;+00,200298;+031,90;+101,17
-00,169;+00,147;-00,140;-17,3470;-03,2760;-21,5510;-02,630891;-01,855268;+00,131469;+031,90;+101,16
-00,169;+00,150;-00,139;-07,9930;+11,1470;-14,6940;-02,578572;-00,807588;+00,430047;+031,90;+101,17
-00,167;+00,150;-00,128;-08,1520;+14,1330;-25,2230;-00,554657;-01,330787;+00,150527;+031,90;+101,17
-00,169;+00,152;-00,128;-04,1940;-04,6750;-09,1850;-00,219547;-00,845122;-00,045974;+031,90;+101,17
-00,171;+00,151;-00,127;-04,4990;+03,7990;-12,1340;+00,052203;-00,989286;+00,151001;+031,90;+101,18
-00,169;+00,151;-00,125;-03,2430;+01,1300;-09,5990;+00,060268;-00,966025;-00,030135;+031,90;+101,17
-00,170;+00,151;-00,120;-04,8220;+01,2820;-10,3890;+00,025960;-00,757280;+00,007258;+031,90;+101,17
-00,170;+00,151;-00,121;-02,6470;+00,4220;-08,8910;+00,067928;-00,797758;-00,012551;+031,90;+101,17
-00,169;+00,151;-00,122;-04,0690;+00,4660;-09,4240;+00,080732;-00,746557;+00,014951;+031,90;+101,17
-00,170;+00,153;-00,120;-04,1750;+00,3680;-09,2740;+00,072995;-00,678764;+00,023912;+031,90;+101,17
-00,171;+00,152;-00,119;-04,3620;+00,2690;-09,4450;+00,053197;-00,583992;+00,035889;+031,90;+101,17
-00,171;+00,152;-00,115;-04,1070;+00,1590;-09,2640;+00,017326;-00,539738;+00,050852;+031,90;+101,17
-00,169;+00,152;-00,115;-03,9980;+00,3220;-09,1050;+00,007487;-00,498298;+00,069560;+031,90;+101,17
-00,170;+00,152;-00,116;-04,7030;+00,4320;-09,4120;-00,022901;-00,366868;+00,084018;+031,90;+101,17
-00,170;+00,152;-00,114;-04,1780;+00,6500;-09,0530;-00,036412;-00,258227;+00,077921;+031,90;+101,16
-00,170;+00,153;-00,114;-04,0500;+00,5720;-09,1800;-00,048969;-00,183417;+00,081279;+031,90;+101,17
-00,170;+00,150;-00,113;-04,2980;+00,5270;-09,1050;-00,101754;-00,105185;+00,082209;+031,90;+101,17
-00,169;+00,150;-00,115;-03,8680;+00,6800;-08,8240;-00,105882;-00,057848;+00,072097;+031,90;+101,16
-00,169;+00,151;-00,111;-04,0520;+00,4920;-09,2230;-00,144626;-00,020009;+00,080420;+031,90;+101,19
-00,167;+00,153;-00,112;-04,2380;+00,7010;-08,9970;-00,201035;+00,062196;+00,081378;+031,90;+101,17
-00,169;+00,152;-00,111;-04,0530;+00,6160;-08,8040;-00,218634;+00,140275;+00,071817;+031,90;+101,17
-00,170;+00,154;-00,112;-03,6010;+00,3260;-08,6960;-00,186423;+00,133692;+00,064943;+031,90;+101,17
-00,169;+00,152;-00,111;-03,4650;+00,3280;-08,5100;-00,142565;+00,088446;+00,070480;+031,90;+101,17
-00,169;+00,156;-00,110;-03,2800;+00,4840;-08,4770;-00,083778;-00,003330;+00,056174;+031,90;+101,17
-00,170;+00,154;-00,111;-03,7260;+00,6120;-08,7030;-00,053834;-00,042978;+00,052505;+031,90;+101,19
-00,169;+00,155;-00,111;-03,6400;+00,9470;-08,4280;-00,018165;-00,035343;+00,041640;+031,90;+101,17
-00,169;+00,153;-00,111;-03,7410;+01,3260;-08,4280;+00,052027;-00,024137;-00,008391;+031,90;+101,17
-00,169;+00,157;-00,112;-03,8140;+00,4130;-09,0060;+00,062282;-00,041528;-00,020785;+031,90;+101,17
-00,169;+00,155;-00,109;-03,6720;+00,5130;-08,8610;+00,027169;-00,042272;+00,004582;+031,90;+101,17
-00,168;+00,158;-00,112;-03,8010;+00,7800;-08,6380;+00,040716;-00,048188;+00,007869;+031,90;+101,16
-00,169;+00,154;-00,112;-03,8400;+00,8810;-08,6840;+00,082021;-00,037404;-00,017700;+031,90;+101,17
-00,169;+00,158;-00,110;-03,6970;+00,5540;-08,7310;+00,104905;-00,044044;-00,027833;+031,90;+101,16
-00,169;+00,154;-00,110;-03,8750;+00,5960;-08,7340;+00,126452;-00,066715;-00,027391;+031,90;+101,16
-00,169;+00,154;-00,112;-03,7650;+00,6130;-08,6590;+00,164381;-00,077357;-00,038201;+031,90;+101,16
-00,169;+00,153;-00,113;-03,8630;+00,5460;-08,8880;+00,169996;-00,089537;-00,047140;+031,90;+101,16
-00,170;+00,154;-00,113;-03,8360;+00,5950;-08,7400;+00,161184;-00,072189;-00,048951;+031,90;+101,17
-00,168;+00,151;-00,111;-03,7930;+00,6570;-08,5510;+00,185336;-00,064804;-00,064212;+031,90;+101,17
-00,169;+00,156;-00,113;-03,8130;+00,6490;-08,6540;+00,203424;-00,068005;-00,086026;+031,90;+101,17
-00,168;+00,155;-00,112;-03,8170;+00,5680;-08,6140;+00,219774;-00,065903;-00,095888;+031,90;+101,19
-00,170;+00,151;-00,112;-03,7440;+00,5160;-08,6940;+00,242943;-00,072796;-00,112831;+031,90;+101,17
-00,170;+00,151;-00,113;-03,8300;+00,2330;-08,8840;+00,235030;-00,099237;-00,108344;+031,90;+101,17
-00,169;+00,154;-00,111;-03,7750;+00,5270;-08,7140;+00,228386;-00,103945;-00,103151;+031,90;+101,16
-00,170;+00,153;-00,114;-03,7990;+00,4720;-08,8240;+00,219394;-00,107923;-00,103475;+031,90;+101,17
-00,170;+00,153;-00,115;-03,8220;+00,2110;-08,9360;+00,194338;-00,129001;-00,095032;+031,90;+101,17
-00,171;+00,151;-00,112;-03,9280;+00,3450;-08,8030;+00,170834;-00,148007;-00,079248;+031,90;+101,17
-00,172;+00,150;-00,114;-03,7820;+00,3800;-08,5800;+00,163291;-00,157862;-00,085077;+031,90;+101,17
-00,170;+00,152;-00,111;-03,7510;+00,4050;-08,5600;+00,158559;-00,176299;-00,101057;+031,90;+101,17
-00,171;+00,152;-00,114;-04,0160;+00,2330;-08,7380;+00,148387;-00,202018;-00,105882;+031,90;+101,19
-00,172;+00,151;-00,112;-03,8750;+00,0320;-08,6120;+00,126128;-00,233416;-00,099261;+031,90;+101,18
-00,171;+00,152;-00,113;-04,0790;+00,1580;-08,6470;+00,099871;-00,260060;-00,088544;+031,90;+101,16
-00,171;+00,150;-00,112;-04,1110;+00,2320;-08,7390;+00,014179;-00,259995;-00,084617;+031,90;+101,17
-00,170;+00,153;-00,115;-03,9500;+00,0580;-09,0140;-00,121865;-00,322296;-00,070696;+031,90;+101,17
-00,173;+00,150;-00,110;-03,9950;-00,0180;-08,8110;-00,259948;-00,415269;-00,032647;+031,90;+101,16
-00,171;+00,152;-00,111;-04,1500;+00,2600;-08,9930;-00,336577;-00,456504;-00,000832;+031,90;+101,17
-00,173;+00,152;-00,105;-03,8080;+00,6310;-08,7030;-00,368561;-00,507805;-00,000013;+031,90;+101,17
-00,171;+00,152;-00,106;-04,2690;+00,2580;-08,7680;-00,364782;-00,582713;-00,017115;+031,90;+101,17
-00,171;+00,151;-00,103;-04,7870;+00,4200;-08,7640;-00,364407;-00,580249;-00,033113;+031,90;+101,18
-00,173;+00,151;-00,105;-04,2380;+00,5280;-08,6970;-00,311321;-00,583552;-00,046158;+031,90;+101,17
-00,172;+00,152;-00,101;-04,2400;+00,4230;-08,7780;-00,293823;-00,641890;-00,070939;+031,90;+101,16
-00,172;+00,151;-00,099;-03,6020;+00,3860;-08,8820;-00,289234;-00,876048;-00,083263;+031,90;+101,17
-00,173;+00,151;-00,095;-04,0280;+00,2870;-08,7860;-00,121772;-00,897970;-00,070902;+031,90;+101,16
-00,172;+00,151;-00,095;-03,8830;+00,2200;-09,3310;-00,178671;-01,237974;-00,015859;+031,90;+101,17
-00,172;+00,150;-00,090;-03,6300;-00,6670;-09,2630;-00,248581;-01,444500;+00,029302;+031,90;+101,17
-00,172;+00,152;-00,089;-02,6680;+00,2670;-08,6730;-00,638964;-02,056731;+00,107808;+031,90;+101,19
-00,171;+00,150;-00,080;-04,4480;-00,4470;-09,5460;-00,731994;-02,611907;+00,205710;+031,90;+101,17
-00,171;+00,151;-00,079;-02,6960;+00,6360;-08,7760;-00,939352;-03,147954;+00,306259;+031,90;+101,17
-00,170;+00,153;-00,066;-04,5410;-00,3410;-10,3680;-01,096647;-04,013186;+00,447526;+031,90;+101,16
-00,167;+00,152;-00,060;-05,0830;+00,4000;-14,4470;-01,129211;-05,227042;+00,369946;+031,90;+101,17
-00,163;+00,151;-00,045;-05,5520;+01,1350;-18,0040;-01,329701;-06,201130;+00,266387;+031,90;+101,17
-00,159;+00,153;-00,035;-08,4610;+01,6720;-16,9070;-01,714594;-06,696898;+00,131493;+031,90;+101,17
-00,154;+00,151;-00,014;-04,9220;+01,9560;-25,5550;-01,301941;-05,986258;-00,143483;+031,90;+101,17
-00,151;+00,150;-00,007;-03,2190;+03,1290;-20,3270;-00,783990;-05,030981;-00,480931;+031,90;+101,16
-00,147;+00,148;+00,004;-00,7020;+00,9390;-14,9670;-00,240701;-04,645427;-00,480225;+031,90;+101,17
-00,144;+00,149;+00,007;-17,1890;+02,2710;-26,0890;-00,320434;-04,764222;+00,190519;+031,90;+101,19
-00,137;+00,146;+00,018;-16,8550;+02,8550;-27,4910;-00,341752;-01,688278;+00,427283;+031,90;+101,19
-00,135;+00,149;+00,016;+02,3310;+01,0930;-17,2080;+00,074856;-01,579463;+00,424441;+031,90;+101,17
-00,133;+00,148;+00,022;-00,2210;+01,9620;-12,6400;-00,198704;-01,414975;+00,708190;+031,90;+101,17
-00,132;+00,150;+00,022;-01,4710;+01,7190;-14,8130;-00,321934;-01,286344;+00,912899;+031,90;+101,16
-00,127;+00,150;+00,025;-02,2060;+01,5770;-16,1550;-00,339638;-00,790743;+01,057251;+031,90;+101,17
-00,125;+00,153;+00,028;-01,8300;+01,0590;-13,8900;-00,243143;-00,390375;+01,094596;+031,90;+101,17
-00,122;+00,155;+00,031;-01,6090;+00,4280;-11,2790;-00,260731;-00,139112;+01,136464;+031,90;+101,17
-00,121;+00,159;+00,026;-01,9400;+00,4080;-10,2170;-00,306572;+00,059612;+01,140712;+031,90;+101,17
-00,120;+00,156;+00,029;-02,0650;+00,3110;-10,1080;-00,319701;+00,269029;+01,095973;+031,90;+101,17
-00,118;+00,159;+00,030;-02,3730;-00,4090;-10,0430;-00,353112;+00,521270;+01,049446;+031,90;+101,19
-00,116;+00,157;+00,029;-02,8120;-02,2700;-09,9040;-00,399320;+00,790119;+00,923659;+031,90;+101,17
-00,116;+00,160;+00,029;-02,8650;-03,9240;-09,4670;-00,446870;+01,081544;+00,635684;+031,90;+101,17
-00,116;+00,159;+00,030;-02,6990;-04,6480;-09,1230;-00,408278;+01,358172;+00,224742;+031,90;+101,17
-00,119;+00,157;+00,025;-02,5960;-04,6380;-09,1560;-00,323500;+01,618852;-00,205732;+031,90;+101,17
-00,122;+00,159;+00,024;-02,4540;-03,8720;-09,0070;-00,247292;+01,831853;-00,592746;+031,90;+101,17
-00,123;+00,158;+00,021;-02,5280;-02,9510;-08,7330;-00,215418;+02,031558;-00,854483;+031,90;+101,16
-00,128;+00,154;+00,020;-02,5670;-01,8270;-08,5650;-00,213518;+02,215894;-00,992541;+031,90;+101,17
-00,132;+00,154;+00,016;-02,5400;-00,6850;-08,3050;-00,183143;+02,401034;-01,020646;+031,90;+101,17
-00,137;+00,151;+00,015;-02,6790;+00,3910;-08,4050;-00,077135;+02,588585;-00,948032;+031,90;+101,19
-00,141;+00,153;+00,008;-02,7910;+00,8350;-08,1290;+00,013871;+02,789027;-00,810231;+031,90;+101,17
-00,146;+00,150;+00,004;-02,8530;+00,6580;-07,4130;+00,050620;+02,955966;-00,619963;+031,90;+101,17
-00,148;+00,150;00,000;-03,2500;+00,0240;-06,7920;+00,071261;+03,082961;-00,444720;+031,90;+101,17
-00,152;+00,146;-00,006;-03,4290;-00,9340;-06,4320;+00,086709;+03,166776;-00,337320;+031,90;+101,17
-00,154;+00,147;-00,012;-03,6700;-01,5020;-06,2220;+00,156675;+03,250637;-00,292054;+031,90;+101,17
-00,159;+00,147;-00,018;-03,8790;-01,9070;-06,0320;+00,281368;+03,352529;-00,300200;+031,90;+101,17
-00,160;+00,147;-00,023;-04,1550;-02,0970;-05,7490;+00,473973;+03,443273;-00,356374;+031,90;+101,17
-00,164;+00,146;-00,031;-04,7820;-02,3350;-05,5540;+00,660896;+03,553490;-00,432001;+031,90;+101,16
-00,166;+00,147;-00,040;-04,7940;-02,5910;-05,4100;+00,790051;+03,658435;-00,526465;+031,90;+101,17
-00,169;+00,145;-00,049;-05,0740;-03,0360;-05,6320;+00,852730;+03,736401;-00,629595;+031,90;+101,16
-00,171;+00,145;-00,055;-05,3260;-03,3660;-05,4500;+00,907675;+03,823844;-00,772181;+031,90;+101,17
-00,174;+00,142;-00,065;-05,3540;-03,5020;-05,1990;+00,991125;+03,844470;-00,959021;+031,90;+101,16
-00,177;+00,140;-00,074;-05,7530;-03,3710;-05,1070;+01,075936;+03,823774;-01,192229;+031,90;+101,16
-00,180;+00,139;-00,083;-06,1040;-01,9650;-05,5140;+01,168114;+03,777909;-01,431341;+031,90;+101,17
-00,181;+00,134;-00,092;-06,7150;+00,7410;-07,0240;+01,229162;+03,788927;-01,514473;+031,90;+101,19
-00,183;+00,132;-00,104;-06,8140;+02,6890;-08,4450;+01,207709;+03,844972;-01,391045;+031,90;+101,16
-00,186;+00,130;-00,110;-06,5700;+04,1340;-09,2310;+01,163725;+03,913057;-01,147470;+031,90;+101,17
-00,187;+00,127;-00,120;-06,8880;+05,1360;-10,0240;+01,169055;+03,977150;-00,853753;+031,90;+101,17
-00,185;+00,125;-00,132;-07,4740;+05,0380;-11,0490;+01,197985;+04,039651;-00,572309;+031,90;+101,17
-00,184;+00,123;-00,143;-08,4910;+04,2200;-12,1150;+01,203167;+04,120265;-00,344398;+031,90;+101,17
-00,183;+00,122;-00,151;-09,1540;+03,6940;-11,8750;+01,174618;+04,176867;-00,213249;+031,90;+101,17
-00,179;+00,119;-00,163;-09,5190;+03,4410;-11,7250;+01,113841;+04,160385;-00,097293;+031,90;+101,17
-00,177;+00,122;-00,171;-10,2090;+03,7290;-11,9200;+01,105348;+04,089751;-00,035282;+031,90;+101,17
-00,172;+00,117;-00,181;-10,7410;+03,7510;-11,8040;+01,114575;+03,991010;+00,012616;+031,90;+101,16
-00,169;+00,118;-00,188;-10,9100;+04,1270;-11,0740;+01,046221;+03,889476;+00,041891;+031,90;+101,19
-00,165;+00,116;-00,198;-10,2890;+04,3830;-10,4670;+00,951263;+03,714187;+00,122691;+031,90;+101,19
-00,162;+00,119;-00,205;-10,8550;+03,7190;-11,6330;+00,885361;+03,522799;+00,211969;+031,90;+101,16
-00,156;+00,116;-00,212;-12,2710;+03,1440;-11,0410;+00,849098;+03,387347;+00,156080;+031,90;+101,17
-00,153;+00,116;-00,219;-13,0580;+02,7460;-07,7360;+00,766095;+03,066885;+00,076952;+031,90;+101,17
-00,149;+00,113;-00,225;-14,2160;+03,2680;-04,5350;+00,656473;+02,541995;+00,041091;+031,90;+101,16
-00,146;+00,114;-00,229;-15,4050;+03,6330;-01,9590;+00,501454;+01,881193;+00,106045;+031,90;+101,17
-00,142;+00,113;-00,234;-17,2000;+04,0200;-01,8790;+00,361811;+01,226580;+00,235844;+031,90;+101,18
-00,142;+00,113;-00,232;-18,3880;+03,6340;-01,9950;+00,209177;+00,669662;+00,381997;+031,90;+101,16
-00,140;+00,114;-00,236;-18,7690;+03,7510;-02,0730;+00,071074;+00,154733;+00,541186;+031,90;+101,19
-00,140;+00,114;-00,235;-18,5040;+04,0090;-01,9630;+00,015463;-00,315089;+00,632580;+031,90;+101,17
-00,139;+00,115;-00,231;-17,0700;+03,3760;-01,4830;-00,117034;-00,790711;+00,739529;+031,90;+101,17
-00,139;+00,117;-00,233;-15,3620;+03,0390;-02,3500;-00,284203;-01,266409;+00,845152;+031,90;+101,17
-00,139;+00,119;-00,231;+05,3320;+01,4790;-08,4970;-00,777806;-00,369905;+01,265891;+031,90;+101,16
-00,140;+00,124;-00,230;+07,4370;-02,5890;-19,1420;-00,332616;-01,663477;+01,585938;+031,90;+101,17
-00,142;+00,124;-00,224;+25,0260;-12,3220;-05,5150;-00,603896;-03,439102;+01,290226;+031,90;+101,17
-00,144;+00,127;-00,218;-10,0530;-16,9930;-04,9050;-00,738766;-04,365226;+00,620489;+031,90;+101,17
-00,150;+00,126;-00,209;-20,0940;-06,2210;-12,3840;+00,166329;-03,503830;-00,703608;+031,90;+101,19
-00,152;+00,126;-00,204;-08,7680;-01,9080;-21,5570;+00,393884;-02,929368;-01,134764;+031,90;+101,17
-00,157;+00,122;-00,201;-03,8830;+08,2050;-18,7890;-00,026674;-02,349667;-00,558626;+031,90;+101,18
-00,161;+00,126;-00,197;+01,1540;+11,9220;-07,9960;+00,053900;-02,308432;+00,073751;+031,90;+101,17
-00,163;+00,122;-00,192;-00,1780;+07,9670;-10,6020;+00,405168;-02,419820;+00,422390;+031,90;+101,19
-00,165;+00,123;-00,189;-04,2510;-00,0450;-12,5980;+00,610128;-02,273880;+00,571198;+031,90;+101,17
-00,166;+00,124;-00,186;-05,3750;-08,9320;-10,7050;+00,790517;-02,091881;+00,318548;+031,90;+101,17
-00,168;+00,126;-00,183;-04,1060;-10,5620;-09,6580;+01,015262;-02,085724;-00,255638;+031,90;+101,17
-00,169;+00,120;-00,177;-05,0270;-04,0840;-13,7390;+00,967516;-01,955195;-00,440405;+031,90;+101,18
-00,170;+00,122;-00,179;-06,7130;+04,0660;-16,7290;+00,874532;-01,513410;-00,254712;+031,90;+101,17
-00,172;+00,120;-00,175;-04,2510;+05,2620;-14,1130;+00,907453;-01,127989;+00,056966;+031,90;+101,18
-00,174;+00,121;-00,175;-03,1560;-00,5110;-11,2880;+00,830132;-00,949113;+00,191865;+031,90;+101,17
-00,173;+00,119;-00,174;-03,5970;-05,8510;-10,2000;+00,661181;-00,855139;+00,084600;+031,90;+101,19
-00,174;+00,119;-00,174;-03,1830;-05,5010;-09,1700;+00,470093;-00,815534;-00,064689;+031,90;+101,17
-00,176;+00,118;-00,169;-02,6240;-01,4790;-09,9250;+00,235638;-00,765074;-00,038376;+031,90;+101,17
-00,175;+00,120;-00,171;-02,6100;+00,0540;-10,1230;+00,112785;-00,651122;+00,086225;+031,90;+101,17
-00,175;+00,116;-00,167;-03,7380;-04,0130;-11,6540;-00,047301;-00,630597;+00,067595;+031,90;+101,19
-00,175;+00,120;-00,169;-02,5920;-04,9770;-08,5320;-00,154888;-00,581338;+00,023243;+031,90;+101,16
-00,177;+00,115;-00,169;-02,0000;-01,7990;-09,0070;-00,273395;-00,647628;+00,063512;+031,90;+101,17
-00,176;+00,121;-00,166;-03,2940;-00,3920;-10,4770;-00,315746;-00,614112;+00,127912;+031,90;+101,17
-00,177;+00,118;-00,162;-02,7220;-01,2860;-09,2700;-00,308706;-00,570739;+00,137164;+031,90;+101,17
-00,177;+00,120;-00,162;-02,5020;-02,2120;-09,4120;-00,365330;-00,594542;+00,129314;+031,90;+101,19
-00,177;+00,120;-00,160;-04,3800;-00,9750;-10,7920;-00,370826;-00,489273;+00,111346;+031,90;+101,17
-00,177;+00,122;-00,159;-03,3050;-01,1480;-09,6470;-00,322777;-00,371140;+00,075609;+031,90;+101,16
-00,177;+00,121;-00,157;-02,2530;-01,3800;-08,6680;-00,307090;-00,396309;+00,058304;+031,90;+101,18
-00,177;+00,121;-00,157;-02,6690;-01,0530;-09,6250;-00,262278;-00,440513;+00,058378;+031,90;+101,16
-00,177;+00,124;-00,154;-03,9850;-00,7090;-10,1100;-00,209771;-00,375803;+00,037417;+031,90;+101,17
-00,178;+00,122;-00,152;-02,4590;-01,8520;-08,4950;-00,194895;-00,350558;+00,005013;+031,90;+101,16
-00,177;+00,124;-00,154;-02,0050;-01,6920;-08,5740;-00,173113;-00,453310;+00,024522;+031,90;+101,17
-00,179;+00,124;-00,152;-03,4040;-00,8520;-09,8410;-00,107997;-00,487346;+00,023577;+031,90;+101,16
-00,178;+00,122;-00,151;-03,9120;-00,9480;-09,7660;-00,199799;-00,350215;+00,027479;+031,90;+101,17
-00,179;+00,123;-00,151;-03,4050;-01,6760;-08,8830;-00,342275;-00,243507;+00,037787;+031,90;+101,17
-00,178;+00,123;-00,149;-03,4160;-01,4560;-09,2470;-00,464335;-00,155511;+00,073031;+031,90;+101,19
-00,178;+00,123;-00,149;-02,9040;-01,2140;-08,9010;-00,563430;-00,096471;+00,095840;+031,90;+101,17
-00,179;+00,123;-00,148;-03,2080;-01,0890;-09,2340;-00,583495;-00,099754;+00,113939;+031,90;+101,17
-00,179;+00,126;-00,147;-03,0720;-00,8830;-08,7670;-00,663262;-00,037444;+00,116931;+031,90;+101,17
-00,178;+00,125;-00,145;-02,5760;-01,2960;-09,2370;-00,681255;-00,079935;+00,145653;+031,90;+101,17
-00,179;+00,125;-00,146;-04,4720;+00,8220;-11,2710;-00,422916;-00,118657;+00,112721;+031,90;+101,17
-00,178;+00,127;-00,143;-02,7710;-00,6670;-09,1610;-00,317507;-00,107940;+00,045878;+031,90;+101,16
-00,178;+00,128;-00,143;-02,8130;-01,0760;-08,8020;-00,303454;-00,147381;+00,060305;+031,90;+101,17
-00,178;+00,128;-00,143;-03,2260;-00,4060;-09,1770;-00,318939;-00,151018;+00,061089;+031,90;+101,17
-00,178;+00,126;-00,143;-03,1410;-01,0460;-08,7280;-00,393100;-00,137282;+00,054546;+031,90;+101,16
-00,178;+00,126;-00,139;-02,8280;-00,8660;-08,6080;-00,466370;-00,170939;+00,073290;+031,90;+101,16
-00,178;+00,128;-00,141;-02,9000;-00,7930;-08,5450;-00,568195;-00,202999;+00,090985;+031,90;+101,16
-00,178;+00,127;-00,137;-03,1270;-00,7740;-08,6150;-00,674935;-00,236530;+00,114002;+031,90;+101,17
-00,177;+00,131;-00,141;-02,9930;-00,7270;-08,4580;-00,798396;-00,269691;+00,130658;+031,90;+101,17
-00,178;+00,130;-00,134;-03,1610;-00,5600;-08,6510;-00,829174;-00,334565;+00,151294;+031,90;+101,17
-00,178;+00,131;-00,135;-02,9320;-01,1770;-08,7260;-00,817927;-00,338039;+00,168845;+031,90;+101,17
-00,178;+00,130;-00,131;-03,5020;+00,7010;-10,0530;-00,599836;-00,389925;+00,154835;+031,90;+101,17
-00,177;+00,133;-00,131;-03,1360;-00,2310;-09,2700;-00,463668;-00,394107;+00,129215;+031,90;+101,17
-00,177;+00,130;-00,126;-03,4460;+00,1830;-09,3350;-00,384997;-00,383227;+00,127112;+031,90;+101,17
-00,177;+00,133;-00,128;-03,5870;+00,1000;-09,3750;-00,356863;-00,358010;+00,115931;+031,90;+101,17
-00,177;+00,132;-00,128;-03,7420;+00,1450;-09,6990;-00,306101;-00,339657;+00,092930;+031,90;+101,17
-00,177;+00,135;-00,127;-03,7900;+00,2510;-09,5060;-00,226349;-00,291781;+00,070476;+031,90;+101,17
-00,177;+00,132;-00,123;-03,3990;-00,1050;-08,9950;-00,181661;-00,289176;+00,058499;+031,90;+101,17
-00,176;+00,135;-00,122;-03,5190;+00,0100;-09,0300;-00,138066;-00,305582;+00,057343;+031,90;+101,17
-00,177;+00,134;-00,125;-03,4700;-00,0530;-09,0850;-00,096003;-00,316548;+00,054360;+031,90;+101,16
-00,177;+00,137;-00,124;-03,3060;-00,0730;-08,9550;-00,055631;-00,333645;+00,055740;+031,90;+101,17
-00,178;+00,133;-00,120;-03,3220;-00,1210;-08,9570;+00,000586;-00,400908;+00,057092;+031,90;+101,17
-00,177;+00,136;-00,121;-03,8730;+00,0790;-09,0920;+00,012027;-00,409540;+00,060369;+031,90;+101,17
-00,178;+00,131;-00,118;-03,7420;+00,0420;-09,0670;+00,008746;-00,415168;+00,060376;+031,90;+101,17
-00,177;+00,137;-00,119;-04,6250;+00,1230;-09,3270;-00,016205;-00,373643;+00,073334;+031,90;+101,19
-00,177;+00,134;-00,118;-03,8330;+00,0630;-09,0050;-00,034214;-00,317300;+00,084296;+031,90;+101,16
-00,178;+00,136;-00,117;-03,6760;-00,0690;-08,9260;-00,061635;-00,364208;+00,110131;+031,90;+101,17
-00,178;+00,132;-00,116;-03,8620;+00,0620;-08,9930;-00,097668;-00,374666;+00,138268;+031,90;+101,16
-00,177;+00,138;-00,115;-03,5090;+00,5100;-08,7530;-00,137731;-00,405074;+00,111121;+031,90;+101,17
-00,177;+00,135;-00,114;-04,2870;+00,1520;-08,8300;-00,201219;-00,470467;+00,040361;+031,90;+101,16
-00,177;+00,137;-00,113;-03,9050;+00,2490;-08,7520;-00,277757;-00,545346;+00,003728;+031,90;+101,16
-00,176;+00,136;-00,109;-04,2380;+00,1290;-08,9110;-00,339943;-00,612536;-00,034012;+031,90;+101,17
-00,177;+00,136;-00,110;-04,2420;+00,1230;-09,0160;-00,352538;-00,673229;-00,056159;+031,90;+101,17
-00,177;+00,136;-00,106;-04,1430;+00,1270;-08,8980;-00,341755;-00,761704;-00,059182;+031,90;+101,17
-00,176;+00,137;-00,105;-03,9760;+00,2170;-08,8870;-00,311514;-00,865313;-00,058856;+031,90;+101,17
-00,177;+00,136;-00,102;-04,4170;-00,0080;-09,0360;-00,232298;-01,090173;-00,095794;+031,90;+101,18
-00,177;+00,137;-00,103;-04,6070;+00,0210;-08,9420;-00,181550;-01,220951;-00,084487;+031,90;+101,18
-00,177;+00,134;-00,099;-04,3040;-00,0410;-08,7970;-00,162838;-01,302550;-00,037182;+031,90;+101,19
-00,178;+00,136;-00,097;-04,1990;-00,2680;-08,7870;-00,270237;-01,596842;+00,017087;+031,90;+101,17
-00,177;+00,136;-00,090;-04,0560;-00,1640;-08,8470;-00,222565;-01,957586;+00,033017;+031,90;+101,17
-00,178;+00,136;-00,088;-03,1930;-00,7660;-08,9590;-00,532106;-02,429014;+00,106467;+031,90;+101,17
-00,177;+00,134;-00,079;-04,2600;-01,0440;-09,4250;-00,620646;-02,914660;+00,243204;+031,90;+101,17
-00,177;+00,137;-00,075;-04,2630;-00,1640;-09,3790;-00,929998;-03,605763;+00,440687;+031,90;+101,17
-00,173;+00,136;-00,064;-03,9840;-00,3920;-09,8240;-01,173754;-04,195639;+00,621155;+031,90;+101,17
-00,171;+00,139;-00,057;-05,1360;-00,4090;-11,6260;-01,321080;-05,020920;+00,716255;+031,90;+101,17
-00,167;+00,140;-00,041;-05,4190;+01,8940;-14,8860;-01,212914;-05,962630;+00,696791;+031,90;+101,17
-00,164;+00,141;-00,031;-11,3990;+00,3910;-13,1930;-01,340391;-06,679531;+00,732730;+031,90;+101,17
-00,156;+00,138;-00,014;-07,4010;+01,2000;-18,4020;-01,388802;-06,447353;+00,715885;+031,90;+101,17
-00,151;+00,141;-00,005;-08,2900;+01,0330;-27,7030;-00,960408;-05,167472;+00,434973;+031,90;+101,17
-00,144;+00,139;+00,008;-04,9980;+00,3400;-16,5670;-00,934075;-05,161494;+00,288258;+031,90;+101,16
-00,140;+00,141;+00,017;-01,7640;-00,3090;-11,1810;-01,239843;-04,807032;+00,556324;+031,90;+101,17
-00,131;+00,139;+00,029;-24,9210;-00,3210;-22,0960;-00,382876;-04,601501;+00,572984;+031,90;+101,17
-00,128;+00,141;+00,032;-19,5600;-03,4650;-30,5590;-00,746777;-01,952632;+00,325244;+031,90;+101,19
-00,124;+00,138;+00,037;-03,5690;-02,2990;-21,3630;-00,377045;-01,538271;+00,233702;+031,90;+101,19
-00,122;+00,138;+00,038;-03,2690;-01,3890;-13,0740;-00,334860;-01,157940;+00,213349;+031,90;+101,19
-00,121;+00,138;+00,041;-02,3190;-00,2810;-11,8430;-00,291372;-01,213845;+00,322548;+031,90;+101,17
-00,120;+00,138;+00,042;-02,1760;+00,9440;-13,2780;-00,156974;-00,987280;+00,397800;+031,90;+101,19
-00,115;+00,139;+00,046;-02,0040;+01,1520;-13,9020;+00,071278;-00,669983;+00,519024;+031,90;+101,19
-00,113;+00,141;+00,043;-00,9840;+00,6520;-12,5760;+00,189307;-00,321694;+00,618655;+031,90;+101,17
-00,112;+00,141;+00,045;-00,2370;+00,2870;-11,2610;+00,239171;-00,051014;+00,702543;+031,90;+101,16
-00,112;+00,143;+00,046;+00,1060;-00,1810;-10,9980;+00,239379;+00,221154;+00,735163;+031,90;+101,16
-00,110;+00,143;+00,043;+00,0120;-00,7140;-11,4430;+00,256370;+00,541089;+00,713329;+031,90;+101,17
-00,110;+00,146;+00,042;+00,1940;-01,2410;-11,0910;+00,239137;+00,923723;+00,611996;+031,90;+101,17
-00,110;+00,147;+00,040;+00,8980;-01,7840;-09,6200;+00,214403;+01,238966;+00,479260;+031,90;+101,17
-00,112;+00,148;+00,038;+01,1110;-01,9500;-08,6320;+00,183873;+01,479100;+00,326262;+031,90;+101,17
-00,115;+00,146;+00,035;+01,2210;-01,6580;-08,3120;+00,251847;+01,672514;+00,160292;+031,90;+101,17
-00,115;+00,149;+00,032;+00,7410;-01,4710;-08,4790;+00,396112;+01,885948;-00,015481;+031,90;+101,19
-00,118;+00,148;+00,030;+00,1500;-01,7690;-09,3660;+00,518350;+02,159996;-00,187604;+031,90;+101,17
-00,121;+00,150;+00,025;-00,3960;-02,0900;-09,7420;+00,568695;+02,495532;-00,376386;+031,90;+101,18
-00,125;+00,149;+00,019;-00,9780;-02,1790;-09,6280;+00,582456;+02,811701;-00,583916;+031,90;+101,17
-00,128;+00,149;+00,013;-01,2770;-01,9050;-08,8550;+00,577392;+03,090786;-00,782112;+031,90;+101,17
-00,133;+00,149;+00,009;-01,3690;-01,1370;-08,1410;+00,567043;+03,289203;-00,950125;+031,90;+101,17
-00,137;+00,149;+00,006;-02,1330;+00,0270;-08,3020;+00,608599;+03,452456;-01,049419;+031,90;+101,17
-00,142;+00,147;-00,004;-02,4960;+01,0930;-08,3910;+00,665328;+03,647013;-01,072243;+031,90;+101,17
-00,146;+00,145;-00,011;-02,9040;+01,8090;-08,1290;+00,708343;+03,811044;-01,001909;+031,90;+101,17
-00,152;+00,145;-00,018;-03,3610;+02,0720;-07,7360;+00,725331;+03,926592;-00,891485;+031,90;+101,16
-00,154;+00,145;-00,027;-03,7880;+01,9470;-07,5880;+00,749299;+03,996247;-00,786240;+031,90;+101,17
-00,158;+00,142;-00,035;-04,4770;+01,5410;-08,0980;+00,808583;+04,040260;-00,714105;+031,90;+101,19
-00,161;+00,144;-00,044;-05,1630;+00,6500;-08,8160;+00,882643;+04,104266;-00,689025;+031,90;+101,19
-00,165;+00,141;-00,052;-06,1030;+00,1060;-09,1220;+00,936604;+04,185193;-00,764681;+031,90;+101,16
-00,167;+00,141;-00,064;-06,5940;+00,2170;-08,7960;+00,934287;+04,227333;-00,840032;+031,90;+101,17
-00,169;+00,140;-00,072;-07,2160;+01,0610;-08,6100;+00,917292;+04,186203;-00,850618;+031,90;+101,17
-00,171;+00,141;-00,083;-07,7710;+02,1440;-08,6380;+00,950316;+04,104111;-00,796117;+031,90;+101,16
-00,172;+00,138;-00,089;-08,5450;+02,6280;-08,3290;+00,948412;+04,052269;-00,678145;+031,90;+101,17
-00,174;+00,139;-00,099;-08,6290;+02,8010;-08,6620;+00,901631;+03,937749;-00,515809;+031,90;+101,18
-00,173;+00,139;-00,107;-09,3640;+03,2900;-10,5680;+00,908813;+03,869267;-00,331102;+031,90;+101,18
-00,174;+00,137;-00,120;-09,7990;+03,1300;-11,7740;+00,939070;+03,915245;-00,126584;+031,90;+101,17
-00,171;+00,137;-00,126;-09,9320;+02,4580;-11,2570;+00,971952;+03,988234;+00,011235;+031,90;+101,19
-00,171;+00,138;-00,135;-09,9130;+01,6530;-10,6580;+01,005024;+03,986311;+00,060746;+031,90;+101,17
-00,168;+00,136;-00,144;-09,8180;+01,1250;-10,3000;+01,003854;+03,949138;+00,052773;+031,90;+101,17
-00,168;+00,137;-00,153;-09,5820;+00,9820;-10,0080;+01,023915;+03,890792;+00,000929;+031,90;+101,17
-00,166;+00,133;-00,164;-09,2740;+00,8920;-10,3580;+01,067024;+03,788208;-00,079746;+031,90;+101,19
-00,164;+00,137;-00,171;-09,6020;+00,2320;-11,4920;+01,082905;+03,716466;-00,198297;+031,90;+101,16
-00,160;+00,133;-00,183;-10,2070;-00,5130;-12,1930;+01,018533;+03,692048;-00,381351;+031,90;+101,16
-00,157;+00,135;-00,186;-10,2760;+00,3850;-11,6430;+00,917573;+03,658230;-00,572672;+031,90;+101,17
-00,154;+00,133;-00,193;-10,1450;+03,1500;-10,9730;+00,889901;+03,568483;-00,654371;+031,90;+101,17
-00,152;+00,130;-00,202;-10,6060;+06,2310;-11,1750;+00,885847;+03,483690;-00,548198;+031,90;+101,17
-00,148;+00,127;-00,209;-10,9090;+08,2170;-10,3920;+00,789753;+03,405165;-00,227208;+031,90;+101,17
-00,146;+00,127;-00,217;-11,3580;+08,7010;-08,4430;+00,563231;+03,236673;+00,218365;+031,90;+101,17
-00,140;+00,127;-00,221;-12,0900;+07,3320;-06,8720;+00,334976;+02,950455;+00,653120;+031,90;+101,19
-00,137;+00,131;-00,229;-13,4740;+05,1410;-05,9370;+00,224812;+02,601742;+00,931996;+031,90;+101,18
-00,131;+00,129;-00,230;-15,0780;+02,9310;-03,7720;+00,201067;+02,228707;+01,046412;+031,90;+101,17
-00,128;+00,131;-00,234;-16,2830;+01,2080;-00,8230;+00,094933;+01,760890;+01,046012;+031,90;+101,17
-00,125;+00,131;-00,237;-16,9530;+00,5940;+01,0460;-00,007436;+01,169332;+00,982781;+031,90;+101,17
-00,121;+00,135;-00,239;-17,7890;+00,6010;+01,1250;-00,049331;+00,563678;+00,825636;+031,90;+101,19
-00,119;+00,133;-00,238;-17,7720;+00,3800;+00,0410;-00,097486;+00,008560;+00,635715;+031,90;+101,17
-00,120;+00,135;-00,238;-17,6360;+00,3860;-01,4090;-00,204540;-00,441683;+00,476928;+031,90;+101,17
-00,120;+00,139;-00,237;-16,2700;+01,2950;-01,4120;-00,297528;-00,797673;+00,380438;+031,90;+101,17
-00,120;+00,138;-00,235;-14,5890;+01,6770;-02,4140;-00,363381;-01,141801;+00,423033;+031,90;+101,17
-00,121;+00,139;-00,232;+01,3660;+01,0500;-03,4580;-00,568898;-00,826632;+00,634454;+031,90;+101,17
-00,121;+00,142;-00,234;+18,9660;+01,4520;-23,5310;+00,000583;-02,064599;+00,403744;+031,90;+101,17
-00,123;+00,141;-00,227;+42,0690;-02,4960;-01,6020;+00,046705;-03,290018;+00,747262;+031,90;+101,17
-00,127;+00,144;-00,225;-02,5460;-17,0510;+00,4890;-00,749725;-06,118393;+01,217312;+031,90;+101,16
-00,134;+00,146;-00,209;-33,7540;+01,8620;-06,3700;-00,236423;-04,675147;-00,090126;+031,90;+101,19
-00,139;+00,145;-00,207;-07,4500;-00,5720;-34,2200;+01,039627;-04,452197;-01,023063;+031,90;+101,17
-00,145;+00,142;-00,198;-12,6010;+08,2650;-21,4660;+00,854287;-03,341051;-00,364705;+031,90;+101,17
-00,149;+00,142;-00,199;-02,9140;+07,0350;-13,3760;+00,991962;-02,914735;-00,019168;+031,90;+101,19
-00,152;+00,140;-00,194;-02,7020;+02,7740;-12,3790;+01,088666;-02,668436;+00,269834;+031,90;+101,17
-00,153;+00,139;-00,192;-02,1190;-01,9010;-08,2040;+01,227562;-02,679556;+00,347454;+031,90;+101,17
-00,156;+00,137;-00,186;-05,7550;-06,3600;-10,9870;+01,233909;-02,649376;+00,266570;+031,90;+101,19
-00,157;+00,139;-00,187;-06,4460;-09,6620;-12,2480;+00,979488;-02,465927;+00,136656;+031,90;+101,17
-00,161;+00,136;-00,181;-09,2570;-11,5030;-16,3650;+00,406275;-02,192056;-00,028725;+031,90;+101,17
-00,162;+00,139;-00,178;-11,9760;-07,1590;-18,3100;-00,433550;-01,655284;+00,059026;+031,90;+101,17
-00,162;+00,136;-00,172;-04,0850;+00,3640;-12,1780;-00,535782;-01,180377;+00,082905;+031,90;+101,19
-00,163;+00,140;-00,174;-03,9370;+01,9940;-11,9770;-00,624313;-00,953260;+00,194697;+031,90;+101,17
-00,164;+00,139;-00,169;-04,9280;-03,0480;-10,8790;-00,736131;-00,707449;+00,200988;+031,90;+101,17
-00,165;+00,142;-00,166;-03,4710;-01,9220;-09,7000;-00,874017;-00,557714;+00,198866;+031,90;+101,17
-00,164;+00,142;-00,164;-02,8550;+01,3240;-10,4850;-00,853554;-00,493889;+00,222833;+031,90;+101,16
-00,164;+00,144;-00,165;-03,3420;+00,0620;-10,3440;-00,752114;-00,418856;+00,194486;+031,90;+101,17
-00,164;+00,142;-00,159;-02,7120;-01,1400;-09,1410;-00,708163;-00,403679;+00,161268;+031,90;+101,17
-00,164;+00,145;-00,161;-03,4190;-00,4340;-10,2760;-00,633592;-00,401028;+00,138215;+031,90;+101,17
-00,163;+00,144;-00,156;-03,9830;-00,4100;-10,5520;-00,547632;-00,298784;+00,110124;+031,90;+101,17
-00,164;+00,146;-00,156;-03,5420;-00,8180;-09,9040;-00,509057;-00,225770;+00,093445;+031,90;+101,17
-00,164;+00,145;-00,155;-03,3740;-00,5880;-09,6730;-00,493370;-00,169448;+00,090014;+031,90;+101,16
-00,165;+00,149;-00,154;-03,2150;-00,6330;-09,6420;-00,464358;-00,150461;+00,088124;+031,90;+101,17
-00,164;+00,145;-00,153;-03,3750;-00,7820;-09,1590;-00,467487;-00,115294;+00,080199;+031,90;+101,17
-00,164;+00,148;-00,152;-02,8840;-01,1510;-08,5890;-00,536530;-00,092976;+00,084364;+031,90;+101,16
-00,164;+00,147;-00,151;-02,5510;-01,1640;-08,0060;-00,651382;-00,091571;+00,107076;+031,90;+101,16
-00,164;+00,148;-00,151;-02,3020;-01,3250;-07,9660;-00,807067;-00,107595;+00,148164;+031,90;+101,16
-00,164;+00,148;-00,145;-03,5810;-00,4890;-09,6640;-00,846257;-00,102935;+00,170948;+031,90;+101,17
-00,163;+00,151;-00,147;-03,4860;-01,5210;-09,2180;-00,884609;+00,017994;+00,163030;+031,90;+101,17
-00,162;+00,151;-00,144;-05,0940;+01,3230;-12,6190;-00,568705;+00,016004;+00,151402;+031,90;+101,17
-00,163;+00,153;-00,147;-02,8890;+00,5970;-09,3890;-00,433809;+00,117479;+00,060138;+031,90;+101,17
-00,163;+00,152;-00,144;-02,9910;-00,8230;-09,0660;-00,387921;+00,068172;+00,042327;+031,90;+101,17
-00,163;+00,153;-00,143;-02,7450;+00,2690;-09,1870;-00,330556;+00,030058;+00,024847;+031,90;+101,19
-00,162;+00,151;-00,141;-02,5660;-00,3590;-08,8500;-00,277475;-00,040040;+00,004650;+031,90;+101,19
-00,162;+00,153;-00,142;-02,7790;-00,5980;-08,9400;-00,260262;-00,107144;+00,007694;+031,90;+101,17
-00,163;+00,152;-00,141;-03,1130;+00,0520;-09,3570;-00,205442;-00,154994;+00,009817;+031,90;+101,17
-00,163;+00,152;-00,141;-03,2300;-00,2480;-09,1980;-00,200305;-00,130766;+00,007350;+031,90;+101,16
-00,162;+00,151;-00,140;-02,9950;-00,3750;-09,0200;-00,211570;-00,132425;+00,014543;+031,90;+101,17
-00,163;+00,154;-00,141;-03,0090;-00,2540;-09,1240;-00,194063;-00,136947;+00,027170;+031,90;+101,17
-00,162;+00,150;-00,141;-03,1780;-00,2290;-09,1520;-00,153421;-00,168518;+00,035362;+031,90;+101,17
-00,163;+00,153;-00,138;-03,0690;-00,1710;-09,0130;-00,154616;-00,198428;+00,035295;+031,90;+101,17
-00,163;+00,154;-00,139;-03,1100;-00,2290;-09,0440;-00,174559;-00,214766;+00,041548;+031,90;+101,17
-00,162;+00,153;-00,140;-03,2720;-00,1230;-09,1380;-00,200357;-00,227226;+00,038671;+031,90;+101,17
-00,162;+00,153;-00,137;-02,9800;+00,2600;-09,2350;-00,192020;-00,279199;+00,025930;+031,90;+101,17
-00,163;+00,155;-00,137;-02,9870;-00,2360;-08,9070;-00,203075;-00,342651;+00,028176;+031,90;+101,17
-00,162;+00,155;-00,132;-03,2880;+00,0290;-09,2440;-00,186937;-00,358869;+00,039921;+031,90;+101,19
-00,162;+00,154;-00,136;-03,2130;-00,1130;-08,9920;-00,177807;-00,351378;+00,036818;+031,90;+101,17
-00,162;+00,153;-00,134;-03,2010;+00,0420;-09,1830;-00,158758;-00,374281;+00,044446;+031,90;+101,16
-00,163;+00,153;-00,133;-03,6180;-00,0460;-09,2420;-00,134551;-00,342074;+00,034362;+031,90;+101,17
-00,163;+00,152;-00,129;-03,2750;+00,1090;-09,1880;-00,105410;-00,320942;+00,035248;+031,90;+101,17
-00,163;+00,156;-00,132;-03,3210;-00,1110;-09,0230;-00,103628;-00,324699;+00,034779;+031,90;+101,17
-00,164;+00,156;-00,129;-03,5470;-00,0170;-09,1740;-00,074985;-00,318054;+00,036221;+031,90;+101,17
-00,163;+00,155;-00,131;-03,6730;-00,0920;-09,1190;-00,062312;-00,289313;+00,038568;+031,90;+101,19
-00,162;+00,153;-00,127;-03,6220;-00,0510;-09,0410;-00,035843;-00,253190;+00,041590;+031,90;+101,18
-00,163;+00,157;-00,130;-03,4150;+00,0560;-08,9750;-00,028169;-00,255642;+00,040955;+031,90;+101,17
-00,163;+00,155;-00,128;-03,5870;+00,0480;-09,0760;-00,033628;-00,256638;+00,039410;+031,90;+101,17
-00,164;+00,156;-00,129;-03,5970;+00,0070;-09,0050;-00,033757;-00,246279;+00,033656;+031,90;+101,17
-00,163;+00,155;-00,124;-03,5390;+00,0800;-08,9700;-00,025510;-00,244332;+00,029605;+031,90;+101,16
-00,164;+00,157;-00,125;-03,5630;+00,0050;-08,9710;-00,018323;-00,264176;+00,028764;+031,90;+101,17
-00,163;+00,155;-00,123;-03,5980;-00,0050;-08,9380;-00,017661;-00,283821;+00,038183;+031,90;+101,17
-00,163;+00,157;-00,126;-03,6110;+00,0260;-09,0350;-00,031683;-00,314460;+00,063459;+031,90;+101,17
-00,164;+00,155;-00,124;-03,6650;+00,1110;-09,0070;-00,055823;-00,344270;+00,087615;+031,90;+101,17
-00,163;+00,157;-00,126;-03,8360;-00,0330;-09,0330;-00,065447;-00,349547;+00,102523;+031,90;+101,17
-00,163;+00,157;-00,122;-03,5290;+00,3080;-08,8500;-00,144609;-00,420704;+00,065828;+031,90;+101,19
-00,164;+00,157;-00,123;-03,9830;+00,3000;-08,8840;-00,177915;-00,452974;+00,027052;+031,90;+101,17
-00,164;+00,156;-00,120;-03,8870;+00,2770;-08,8660;-00,253663;-00,508729;-00,010736;+031,90;+101,17
-00,165;+00,156;-00,121;-04,0070;+00,3450;-08,9400;-00,281740;-00,570994;-00,041266;+031,90;+101,17
-00,163;+00,156;-00,117;-03,9180;+00,2160;-08,9650;-00,284977;-00,620379;-00,060357;+031,90;+101,19
-00,164;+00,156;-00,118;-03,6830;+00,1470;-08,8280;-00,271763;-00,694853;-00,067858;+031,90;+101,17
-00,164;+00,154;-00,114;-04,3800;+00,0520;-09,1130;-00,261395;-00,831217;-00,080569;+031,90;+101,17
-00,164;+00,158;-00,114;-04,2050;+00,2980;-08,9460;-00,186054;-00,992111;-00,080165;+031,90;+101,16
-00,164;+00,156;-00,109;-03,7200;+00,2960;-08,7850;-00,139953;-01,059563;-00,069933;+031,90;+101,19
-00,165;+00,157;-00,108;-03,6690;+00,1670;-08,7640;-00,125869;-01,363907;+00,013630;+031,90;+101,16
-00,165;+00,155;-00,103;-04,0760;-00,1940;-09,0090;-00,198618;-01,852755;+00,047327;+031,90;+101,17
-00,165;+00,156;-00,102;-04,1200;-00,7000;-08,7590;-00,223450;-02,482613;+00,094635;+031,90;+101,17
-00,165;+00,156;-00,092;-04,4950;-00,6910;-09,2270;-00,461384;-03,208644;+00,181883;+031,90;+101,17
-00,165;+00,159;-00,088;-03,6580;-00,1320;-09,2400;-00,859958;-03,774490;+00,252808;+031,90;+101,17
-00,163;+00,157;-00,076;-05,4170;-00,6970;-09,7400;-00,857689;-04,844973;+00,428273;+031,90;+101,17
-00,162;+00,159;-00,067;-01,4930;-00,4480;-09,2040;-00,520917;-05,975297;+00,618424;+031,90;+101,19
-00,158;+00,157;-00,051;-03,8500;+01,1280;-15,7470;-01,048629;-07,162187;+00,562176;+031,90;+101,19
-00,153;+00,160;-00,041;-07,9440;+02,2270;-15,9090;-01,800307;-08,284837;+00,487940;+031,90;+101,17
-00,146;+00,159;-00,021;-10,4900;+01,4660;-21,0950;-01,731941;-08,622873;+00,207862;+031,90;+101,17
-00,141;+00,160;-00,007;-10,4030;+02,0050;-27,7650;-01,391430;-07,727958;-00,086564;+031,90;+101,19
-00,132;+00,158;+00,010;-06,1050;+01,5250;-23,2690;-00,887901;-07,222567;-00,331972;+031,90;+101,17
-00,126;+00,157;+00,020;-00,9000;+00,8410;-19,9610;-00,891692;-06,820547;-00,530108;+031,90;+101,16
-00,118;+00,153;+00,032;+04,1860;+00,4410;-11,8960;-00,594381;-06,134992;-00,313493;+031,90;+101,19
-00,111;+00,153;+00,040;-47,4770;+01,9420;-27,8910;-00,145351;-05,386534;+00,291290;+031,90;+101,18
-00,104;+00,153;+00,048;-14,8140;+01,2100;-38,0540;-00,446709;-02,108187;+00,781124;+031,90;+101,19
-00,102;+00,154;+00,047;-09,0270;-00,3640;-33,1240;-00,162284;-01,201542;+00,573262;+031,90;+101,17
-00,099;+00,154;+00,049;-03,1830;-00,5640;-19,8260;-00,159660;+00,094707;+00,649586;+031,90;+101,17
-00,098;+00,157;+00,051;-00,2000;+00,1950;-09,6440;-00,118718;+00,120346;+00,665588;+031,90;+101,19
-00,096;+00,155;+00,054;+00,4440;+00,4940;-05,8780;-00,193521;+00,016076;+00,747043;+031,90;+101,17
-00,097;+00,156;+00,052;+00,3370;+00,4960;-06,6920;-00,213819;+00,059963;+00,883280;+031,90;+101,17
-00,094;+00,157;+00,052;-00,6580;+00,0580;-09,0630;-00,096829;+00,242959;+00,940934;+031,90;+101,18
-00,092;+00,159;+00,051;-01,4000;-00,8730;-10,6590;-00,056081;+00,609678;+00,952575;+031,90;+101,18
-00,092;+00,159;+00,051;-02,3130;-01,1300;-11,8370;-00,021471;+01,105832;+00,907946;+031,90;+101,17
-00,092;+00,163;+00,047;-02,4410;-01,3130;-10,3950;-00,053166;+01,688294;+00,823623;+031,90;+101,17
-00,094;+00,160;+00,048;-01,6580;-01,3660;-07,8770;-00,134218;+02,105861;+00,788282;+031,90;+101,17
-00,096;+00,163;+00,047;-01,3410;-01,1620;-06,2300;-00,202984;+02,354931;+00,773328;+031,90;+101,16
-00,098;+00,162;+00,045;-01,6460;-01,3940;-05,6480;-00,183637;+02,531088;+00,746170;+031,90;+101,19
-00,100;+00,165;+00,041;-02,1740;-02,0400;-06,0400;-00,096458;+02,709827;+00,647385;+031,90;+101,18
-00,103;+00,164;+00,038;-02,5650;-02,6830;-06,2810;+00,019673;+02,937394;+00,479961;+031,90;+101,16
-00,107;+00,163;+00,035;-02,6070;-03,0540;-06,0060;+00,126646;+03,161757;+00,271787;+031,90;+101,19
-00,111;+00,164;+00,025;-02,8460;-02,9650;-05,9520;+00,207416;+03,338689;+00,064933;+031,90;+101,17
-00,114;+00,164;+00,025;-03,1650;-02,4830;-06,2720;+00,285790;+03,493034;-00,085175;+031,90;+101,18
-00,119;+00,164;+00,018;-03,7270;-02,3320;-06,4490;+00,372384;+03,667271;-00,193665;+031,90;+101,17
-00,123;+00,164;+00,012;-03,9470;-02,2360;-06,4740;+00,497828;+03,817036;-00,315438;+031,90;+101,17
-00,128;+00,162;+00,005;-04,1250;-02,4310;-05,9510;+00,621597;+03,951668;-00,474702;+031,90;+101,17
-00,134;+00,163;+00,002;-04,0960;-02,6030;-04,9870;+00,699339;+04,019876;-00,631726;+031,90;+101,16
-00,139;+00,162;-00,007;-04,3020;-02,2810;-05,5990;+00,741997;+04,040536;-00,758789;+031,90;+101,16
-00,141;+00,161;-00,015;-05,1000;-01,9810;-06,7060;+00,788350;+04,126368;-00,872251;+031,90;+101,17
-00,148;+00,160;-00,025;-05,3990;-01,7480;-06,8580;+00,836589;+04,232751;-00,970370;+031,90;+101,17
-00,150;+00,162;-00,034;-05,3130;-01,2450;-06,3430;+00,887834;+04,270973;-01,045342;+031,90;+101,17
-00,155;+00,158;-00,040;-05,6350;-00,8450;-06,1730;+00,980815;+04,224070;-01,115960;+031,90;+101,17
-00,159;+00,158;-00,052;-06,1340;-00,3320;-06,5400;+01,112832;+04,189197;-01,206199;+031,90;+101,17
-00,163;+00,156;-00,062;-05,9310;+00,6680;-06,3750;+01,263832;+04,148560;-01,275773;+031,90;+101,17
-00,167;+00,153;-00,071;-05,9750;+01,9940;-06,6250;+01,350036;+04,067400;-01,244238;+031,90;+101,17
-00,169;+00,150;-00,079;-06,1750;+03,6960;-07,6880;+01,405983;+04,029544;-01,105063;+031,90;+101,16
-00,170;+00,149;-00,092;-06,7110;+05,3790;-08,9940;+01,414891;+04,058394;-00,819396;+031,90;+101,17
-00,172;+00,147;-00,101;-07,3790;+06,4900;-10,3200;+01,407910;+04,107800;-00,402639;+031,90;+101,17
-00,172;+00,148;-00,109;-08,2020;+06,4010;-11,1340;+01,412593;+04,193374;+00,041928;+031,90;+101,16
-00,168;+00,147;-00,120;-09,4010;+04,2880;-11,9580;+01,431788;+04,264658;+00,359300;+031,90;+101,17
-00,169;+00,150;-00,129;-10,7820;+01,3760;-12,3010;+01,424048;+04,356525;+00,417324;+031,90;+101,17
-00,165;+00,145;-00,144;-11,9600;-00,9890;-12,3520;+01,388294;+04,408638;+00,251918;+031,90;+101,17
-00,164;+00,146;-00,152;-12,9850;-02,1530;-12,3130;+01,294444;+04,419292;-00,059580;+031,90;+101,17
-00,160;+00,146;-00,164;-13,6990;-01,9810;-12,7640;+01,199504;+04,418940;-00,386093;+031,90;+101,16
-00,157;+00,145;-00,170;-14,3430;-00,8800;-12,7140;+01,139895;+04,408324;-00,654730;+031,90;+101,17
-00,156;+00,139;-00,179;-14,7320;+01,7550;-11,0940;+01,153524;+04,323244;-00,832458;+031,90;+101,17
-00,154;+00,139;-00,190;-14,8940;+04,4400;-09,0340;+01,189232;+04,104437;-00,832706;+031,90;+101,16
-00,150;+00,135;-00,199;-15,1840;+06,4980;-07,7520;+01,173229;+03,795515;-00,668221;+031,90;+101,17
-00,147;+00,135;-00,205;-15,0310;+06,7940;-07,7870;+00,997454;+03,438296;-00,381342;+031,90;+101,17
-00,142;+00,133;-00,216;-15,5530;+06,8980;-08,4290;+00,750769;+03,125221;-00,050963;+031,90;+101,18
-00,139;+00,134;-00,219;-16,1300;+07,4610;-07,2330;+00,629139;+02,833893;+00,245606;+031,90;+101,17
-00,135;+00,131;-00,223;-16,6970;+06,6550;-04,3620;+00,585277;+02,419635;+00,546798;+031,90;+101,16
-00,131;+00,133;-00,230;-17,5580;+03,5990;-01,7560;+00,442439;+01,847998;+00,766290;+031,90;+101,17
-00,127;+00,131;-00,232;-18,5800;+00,4750;+00,5570;+00,163841;+01,216869;+00,817448;+031,90;+101,17
-00,126;+00,133;-00,233;-19,0740;-00,7830;+02,0530;-00,020617;+00,570947;+00,730320;+031,90;+101,17
-00,124;+00,135;-00,234;-19,1070;+00,1610;+02,5680;+00,074928;-00,047511;+00,591722;+031,90;+101,17
-00,123;+00,138;-00,233;-17,9680;+00,8000;+02,0860;+00,282172;-00,680525;+00,473003;+031,90;+101,17
-00,123;+00,134;-00,232;-13,5560;-05,3480;+04,8620;-00,134837;-01,093980;+00,001918;+031,90;+101,17
-00,126;+00,137;-00,232;+02,7710;+00,5190;-13,8770;-00,879372;-02,451383;+00,241739;+031,90;+101,17
-00,129;+00,140;-00,224;+13,3000;+03,3540;-14,7920;-00,982292;-01,700779;+00,218425;+031,90;+101,18
-00,132;+00,141;-00,219;+21,0530;-04,7650;-08,1000;-00,847058;-04,149354;+00,312010;+031,90;+101,17
-00,137;+00,140;-00,209;-12,5700;-04,2730;-05,2530;-01,520964;-04,572159;+00,442488;+031,90;+101,19
-00,140;+00,145;-00,205;-15,9480;+03,9600;-07,4710;-00,946300;-03,554976;-00,110416;+031,90;+101,16
-00,145;+00,144;-00,195;-03,6960;+04,8090;-18,2140;-00,324220;-03,469586;-00,359786;+031,90;+101,17
-00,147;+00,145;-00,191;-08,2340;+08,6850;-21,9290;-00,352428;-03,092342;+00,112506;+031,90;+101,17
-00,151;+00,142;-00,184;-05,4760;+06,1650;-14,0260;-00,025957;-02,578580;+00,332421;+031,90;+101,17
-00,152;+00,148;-00,180;-02,5250;+01,1850;-11,2690;+00,199631;-02,511100;+00,404853;+031,90;+101,17
-00,154;+00,145;-00,174;-03,6850;-04,8000;-10,0680;+00,176127;-02,438838;+00,347271;+031,90;+101,17
-00,154;+00,146;-00,173;-05,1490;-07,1710;-10,7210;+00,033580;-02,377758;+00,155190;+031,90;+101,17
-00,155;+00,144;-00,165;-06,2010;-05,9470;-12,5710;-00,127002;-02,183124;-00,000134;+031,90;+101,17
-00,157;+00,146;-00,165;-06,0880;-02,5660;-12,9250;-00,266245;-01,960536;-00,055104;+031,90;+101,19
-00,159;+00,145;-00,158;-05,4490;+00,6640;-12,6780;-00,351761;-01,720305;+00,031701;+031,90;+101,17
-00,160;+00,147;-00,158;-04,7730;+00,4790;-12,2870;-00,409577;-01,542198;+00,122674;+031,90;+101,19
-00,160;+00,147;-00,151;-05,0540;-01,7240;-12,0730;-00,499906;-01,358967;+00,131995;+031,90;+101,17
-00,161;+00,148;-00,151;-05,7530;-01,3190;-12,0500;-00,591790;-01,148315;+00,110413;+031,90;+101,17
-00,162;+00,148;-00,146;-04,7550;-00,3760;-11,3390;-00,661544;-00,946879;+00,107302;+031,90;+101,17
-00,163;+00,150;-00,145;-03,1920;-00,3620;-09,2640;-00,655384;-00,847163;+00,102154;+031,90;+101,17
-00,163;+00,151;-00,139;-03,0460;-00,9080;-09,6590;-00,746192;-00,835594;+00,086552;+031,90;+101,17
-00,162;+00,153;-00,139;-05,4370;+01,2040;-10,8390;-00,705704;-00,677907;+00,093351;+031,90;+101,19
-00,162;+00,151;-00,134;-02,9850;+00,6800;-08,8570;-00,708470;-00,598651;+00,084717;+031,90;+101,16
-00,162;+00,154;-00,136;-03,4070;-00,6350;-08,7410;-00,854429;-00,597057;+00,109164;+031,90;+101,16
-00,161;+00,151;-00,129;-04,9600;+02,3660;-12,6750;-00,736142;-00,554590;+00,133901;+031,90;+101,17
-00,162;+00,152;-00,129;-05,7240;+01,9900;-11,6430;-00,596014;-00,268354;+00,085583;+031,90;+101,16
-00,161;+00,153;-00,129;-03,9760;+00,6890;-11,2480;-00,432593;-00,208724;+00,043420;+031,90;+101,17
-00,161;+00,153;-00,128;-04,2360;+01,8730;-10,4140;-00,195491;-00,149796;+00,016618;+031,90;+101,17
-00,161;+00,152;-00,126;-04,0080;+00,1300;-09,7800;-00,085699;-00,110793;-00,010749;+031,90;+101,17
-00,163;+00,154;-00,128;-03,5230;+00,6080;-09,4400;-00,023759;-00,096201;-00,022612;+031,90;+101,17
-00,162;+00,152;-00,129;-03,5160;+00,4770;-09,3370;+00,035454;-00,102678;-00,040981;+031,90;+101,17
-00,163;+00,155;-00,127;-03,9220;+00,4600;-09,5470;+00,051022;-00,062858;-00,052546;+031,90;+101,17
-00,162;+00,151;-00,127;-03,6840;+00,2540;-09,1500;+00,055723;-00,025259;-00,066583;+031,90;+101,17
-00,162;+00,155;-00,126;-03,5840;+00,2970;-09,3160;+00,050441;-00,017319;-00,066593;+031,90;+101,17
-00,162;+00,151;-00,127;-03,7190;+00,2020;-09,2720;+00,026437;+00,020524;-00,057547;+031,90;+101,17
-00,162;+00,153;-00,126;-03,4940;+00,2180;-09,0610;+00,010812;+00,045608;-00,053442;+031,90;+101,17
-00,163;+00,151;-00,126;-03,4150;+00,1640;-08,9580;+00,004934;+00,057166;-00,050171;+031,90;+101,17
-00,163;+00,150;-00,127;-03,3840;+00,0510;-09,0790;+00,010845;+00,044112;-00,041072;+031,90;+101,17
-00,162;+00,152;-00,126;-03,5770;+00,1090;-09,1090;+00,016348;+00,035856;-00,035370;+031,90;+101,16
-00,163;+00,153;-00,127;-03,5870;+00,1320;-09,0270;+00,027012;+00,043932;-00,038137;+031,90;+101,17
-00,163;+00,153;-00,127;-03,4090;+00,0690;-08,8940;+00,027356;+00,037516;-00,044097;+031,90;+101,17
-00,163;+00,153;-00,127;-03,3920;-00,1280;-08,7330;+00,014469;+00,022197;-00,041599;+031,90;+101,17
-00,162;+00,151;-00,127;-03,1770;-00,0440;-08,6480;+00,018411;-00,010978;-00,034246;+031,90;+101,17
-00,164;+00,153;-00,128;-03,0480;-00,0370;-08,6810;+00,007552;-00,069403;-00,023740;+031,90;+101,17
-00,162;+00,151;-00,125;-03,2260;+00,1440;-08,8180;-00,010677;-00,115053;-00,018530;+031,90;+101,17
-00,162;+00,152;-00,128;-03,5830;+00,2470;-09,0310;-00,005514;-00,120969;-00,020434;+031,90;+101,19
-00,163;+00,151;-00,126;-03,4110;+00,1470;-08,9090;-00,016893;-00,120589;-00,032834;+031,90;+101,17
-00,162;+00,152;-00,129;-03,4680;+00,1360;-09,0130;-00,013347;-00,146664;-00,028668;+031,90;+101,17
-00,163;+00,152;-00,126;-03,7340;+00,2460;-09,0960;-00,018002;-00,131655;-00,030262;+031,90;+101,19
-00,163;+00,153;-00,125;-03,6820;+00,1910;-09,0820;-00,024701;-00,111703;-00,036072;+031,90;+101,17
-00,164;+00,150;-00,126;-03,5470;+00,2230;-09,1110;-00,040257;-00,108865;-00,033653;+031,90;+101,17
-00,164;+00,154;-00,127;-03,5040;+00,1740;-08,9880;-00,049054;-00,118674;-00,034873;+031,90;+101,17
-00,163;+00,151;-00,125;-03,2270;+00,0690;-08,6450;-00,038129;-00,159015;-00,038040;+031,90;+101,17
-00,164;+00,152;-00,125;-03,0740;-00,0300;-08,6140;-00,010787;-00,247129;-00,029794;+031,90;+101,17
-00,164;+00,151;-00,122;-03,0300;-00,1100;-08,4840;+00,032828;-00,332150;-00,018324;+031,90;+101,17
-00,164;+00,153;-00,123;-03,3750;-00,0550;-08,8030;+00,064672;-00,395297;+00,001171;+031,90;+101,17
-00,164;+00,151;-00,123;-03,5610;+00,1080;-08,9210;+00,073054;-00,398451;+00,008854;+031,90;+101,19
-00,165;+00,153;-00,122;-03,6750;+00,2190;-08,9560;+00,069814;-00,407555;+00,010562;+031,90;+101,17
-00,164;+00,151;-00,119;-04,0240;+00,2260;-09,0420;+00,046861;-00,379666;+00,007809;+031,90;+101,17
-00,164;+00,152;-00,122;-04,1460;+00,1990;-09,0380;+00,035998;-00,329572;-00,002677;+031,90;+101,17
-00,163;+00,153;-00,121;-04,0990;+00,1890;-08,9830;+00,034909;-00,277266;-00,009382;+031,90;+101,16
-00,165;+00,154;-00,119;-04,0150;+00,2120;-08,9460;+00,032438;-00,230183;-00,020666;+031,90;+101,16
-00,165;+00,151;-00,117;-03,6490;+00,1030;-08,7870;+00,030278;-00,224950;-00,031310;+031,90;+101,17
-00,166;+00,151;-00,119;-03,6210;+00,0430;-08,7440;+00,037559;-00,254980;-00,029224;+031,90;+101,18
-00,163;+00,149;-00,118;-03,6160;-00,0180;-08,7220;+00,047639;-00,281423;-00,019749;+031,90;+101,17
-00,165;+00,153;-00,120;-03,6860;+00,0100;-08,7840;+00,053778;-00,313972;-00,003205;+031,90;+101,19
-00,164;+00,149;-00,118;-04,2210;-00,0440;-08,9640;+00,029300;-00,297623;+00,013438;+031,90;+101,17
-00,166;+00,151;-00,116;-04,1750;+00,0140;-08,9820;+00,008062;-00,256930;+00,023672;+031,90;+101,19
-00,165;+00,150;-00,114;-03,9400;+00,1120;-08,8310;-00,005974;-00,261438;+00,030608;+031,90;+101,17
-00,164;+00,153;-00,117;-04,0330;+00,0960;-08,8410;-00,018001;-00,271204;+00,042817;+031,90;+101,16
-00,164;+00,151;-00,115;-04,3090;+00,1890;-08,9410;-00,034068;-00,277025;+00,045361;+031,90;+101,17
-00,165;+00,154;-00,116;-04,1980;+00,2520;-08,8560;-00,045304;-00,297137;+00,044585;+031,90;+101,17
-00,164;+00,151;-00,113;-03,9680;+00,3070;-08,6960;-00,083912;-00,349439;+00,040443;+031,90;+101,17
-00,165;+00,153;-00,115;-04,0850;+00,2270;-08,7380;-00,130752;-00,404681;+00,037760;+031,90;+101,16
-00,164;+00,152;-00,110;-04,1860;+00,2330;-08,6570;-00,164272;-00,460820;+00,025899;+031,90;+101,17
-00,165;+00,155;-00,112;-04,2060;+00,2650;-08,7720;-00,183970;-00,501391;+00,008046;+031,90;+101,16
-00,164;+00,153;-00,109;-04,2000;+00,2410;-08,7560;-00,193297;-00,601213;+00,000060;+031,90;+101,17
-00,166;+00,154;-00,108;-04,5130;+00,1870;-08,8010;-00,205692;-00,688004;-00,008051;+031,90;+101,16
-00,164;+00,152;-00,105;-03,6090;+00,3230;-08,7480;-00,227571;-00,747955;+00,002393;+031,90;+101,17
-00,164;+00,154;-00,106;-04,8730;+00,0440;-08,7500;-00,205996;-00,984030;-00,009478;+031,90;+101,17
-00,165;+00,152;-00,101;-04,6420;+00,2070;-09,1180;-00,135694;-01,177376;+00,002304;+031,90;+101,17
-00,165;+00,154;-00,099;-03,6470;+00,1930;-08,7050;-00,165732;-01,298985;+00,035405;+031,90;+101,17
-00,164;+00,152;-00,095;-03,0890;-00,4490;-09,0410;-00,367239;-01,780826;+00,085824;+031,90;+101,17
-00,164;+00,156;-00,095;-03,5930;+00,1860;-08,7690;-00,419641;-02,091445;+00,132883;+031,90;+101,17
-00,165;+00,154;-00,087;-03,5010;-00,3350;-08,9220;-00,606968;-02,667207;+00,216532;+031,90;+101,19
-00,164;+00,155;-00,083;-03,5910;-00,0680;-09,4980;-00,560779;-03,270960;+00,285850;+031,90;+101,17
-00,161;+00,152;-00,073;-04,4110;+01,4470;-10,2360;-00,770671;-03,884265;+00,377375;+031,90;+101,17
-00,162;+00,155;-00,066;-06,9080;-00,9770;-13,6670;-01,004078;-04,681123;+00,523566;+031,90;+101,17
-00,158;+00,156;-00,054;-05,9270;+02,5030;-15,9320;-00,862764;-05,372172;+00,572764;+031,90;+101,17
-00,155;+00,157;-00,045;-06,8300;+00,8610;-19,9540;-01,047096;-05,314487;+00,380619;+031,90;+101,17
-00,150;+00,158;-00,031;-05,6450;-00,6730;-21,9980;-00,999882;-04,315839;+00,311341;+031,90;+101,19
-00,148;+00,158;-00,027;-03,5850;+01,7350;-17,9780;-00,614451;-03,879622;+00,414938;+031,90;+101,17
-00,142;+00,157;-00,017;+00,5460;+06,2450;-20,9470;-00,461439;-03,741863;+01,014642;+031,90;+101,17
-00,139;+00,162;-00,014;-22,1030;+06,9080;-26,3610;-00,273112;-02,360323;+01,540115;+031,90;+101,17
-00,134;+00,160;-00,007;+00,8670;+03,4580;-20,8170;+00,028534;-01,557262;+01,787740;+031,90;+101,16
-00,130;+00,167;-00,009;+01,5140;+00,2470;-12,8030;+00,022719;-01,405173;+02,130749;+031,90;+101,17
-00,124;+00,165;-00,005;+01,5080;-01,2690;-11,1480;-00,152551;-01,432179;+02,317200;+031,90;+101,17
-00,119;+00,170;-00,003;+00,2730;-02,6320;-12,7240;-00,196591;-01,291052;+02,293825;+031,90;+101,19
-00,114;+00,175;+00,001;+00,0300;-03,9790;-14,2270;-00,098523;-00,917645;+02,161072;+031,90;+101,17
-00,110;+00,178;-00,001;+00,5390;-05,2780;-13,9120;+00,089960;-00,496381;+01,870985;+031,90;+101,19
-00,105;+00,179;-00,001;+01,2660;-06,8050;-12,7480;+00,207238;-00,147029;+01,503410;+031,90;+101,16
-00,103;+00,181;-00,001;+01,4180;-07,3370;-12,2580;+00,260215;+00,159709;+01,066457;+031,90;+101,19
-00,100;+00,181;00,000;+01,2020;-07,1660;-11,6400;+00,337057;+00,511119;+00,583906;+031,90;+101,17
-00,101;+00,185;-00,001;+01,3830;-06,3230;-10,5870;+00,456834;+00,830115;+00,115646;+031,90;+101,17
-00,101;+00,183;-00,004;+01,6750;-05,0040;-09,5920;+00,607109;+01,099683;-00,286661;+031,90;+101,16
-00,103;+00,185;-00,009;+01,6340;-03,3380;-09,6810;+00,762281;+01,329337;-00,573098;+031,90;+101,19
-00,107;+00,183;-00,010;+01,1750;-01,7170;-10,4140;+00,912159;+01,583964;-00,744409;+031,90;+101,17
-00,107;+00,184;-00,015;+00,3780;-00,6220;-11,5750;+01,052046;+01,861782;-00,839304;+031,90;+101,16
-00,112;+00,180;-00,021;-00,0710;+00,4610;-11,8960;+01,123736;+02,197384;-00,888549;+031,90;+101,17
-00,114;+00,185;-00,024;-00,2210;+01,5810;-11,5320;+01,162095;+02,488811;-00,838873;+031,90;+101,16
-00,117;+00,182;-00,031;-00,3960;+02,5520;-10,7540;+01,162821;+02,732403;-00,727343;+031,90;+101,16
-00,121;+00,185;-00,040;-00,5130;+03,3650;-10,4510;+01,181283;+02,903139;-00,576409;+031,90;+101,17
-00,123;+00,181;-00,041;-01,0080;+03,7550;-10,5570;+01,210551;+03,070256;-00,417498;+031,90;+101,17
-00,125;+00,182;-00,051;-01,4780;+03,7300;-11,0560;+01,258554;+03,234985;-00,268175;+031,90;+101,17
-00,127;+00,181;-00,057;-02,4340;+03,4850;-11,9850;+01,303296;+03,441199;-00,162001;+031,90;+101,17
-00,128;+00,183;-00,063;-03,0530;+02,8170;-11,9390;+01,319934;+03,691996;-00,105220;+031,90;+101,16
-00,129;+00,182;-00,073;-03,4810;+02,2850;-11,5510;+01,316174;+03,894089;-00,086135;+031,90;+101,19
-00,131;+00,186;-00,082;-03,8120;+01,7590;-10,9220;+01,323791;+04,042192;-00,107683;+031,90;+101,19
-00,130;+00,184;-00,092;-04,0410;+01,2370;-10,1890;+01,304071;+04,124214;-00,180480;+031,90;+101,17
-00,132;+00,182;-00,101;-04,3650;+01,0320;-10,1970;+01,313699;+04,115564;-00,269497;+031,90;+101,17
-00,132;+00,182;-00,111;-05,0850;+00,9180;-10,4090;+01,326050;+04,112962;-00,384950;+031,90;+101,17
-00,132;+00,182;-00,116;-05,4570;+01,0090;-10,4200;+01,354561;+04,094885;-00,489922;+031,90;+101,17
-00,131;+00,178;-00,126;-06,1280;+01,2700;-10,2280;+01,360718;+04,068550;-00,569701;+031,90;+101,17
-00,130;+00,180;-00,133;-06,3470;+01,6680;-10,2820;+01,307564;+04,035802;-00,596799;+031,90;+101,17
-00,130;+00,177;-00,142;-07,3730;+02,3380;-12,1870;+01,255044;+04,014050;-00,545413;+031,90;+101,17
-00,128;+00,178;-00,150;-08,1500;+03,1160;-13,3540;+01,222444;+04,097875;-00,428784;+031,90;+101,18
-00,125;+00,175;-00,159;-08,3880;+03,8870;-12,9420;+01,234494;+04,162435;-00,262010;+031,90;+101,17
-00,124;+00,175;-00,167;-08,2980;+04,0420;-12,2720;+01,277379;+04,159213;-00,076075;+031,90;+101,17
-00,119;+00,172;-00,176;-08,8580;+02,3090;-13,4230;+01,304319;+04,115393;+00,074534;+031,90;+101,16
-00,116;+00,173;-00,185;-10,8040;-00,1070;-14,2060;+01,244076;+04,196558;-00,005779;+031,90;+101,17
-00,112;+00,171;-00,192;-11,4130;-01,1300;-12,5650;+01,156826;+04,271168;-00,245932;+031,90;+101,17
-00,109;+00,172;-00,198;-11,6210;+00,5350;-10,4450;+01,142763;+04,161664;-00,507785;+031,90;+101,17
-00,106;+00,169;-00,206;-12,3330;+02,1590;-09,5600;+01,138948;+03,946248;-00,658099;+031,90;+101,17
-00,102;+00,167;-00,212;-13,1870;+03,0600;-09,5310;+01,005667;+03,704976;-00,696857;+031,90;+101,17
-00,099;+00,164;-00,215;-13,7390;+03,8600;-08,4590;+00,781045;+03,418914;-00,652545;+031,90;+101,16
-00,096;+00,164;-00,224;-14,0890;+04,5040;-06,5080;+00,520694;+03,042747;-00,520635;+031,90;+101,17
-00,093;+00,161;-00,227;-14,6590;+04,7080;-04,3860;+00,346897;+02,584572;-00,328661;+031,90;+101,17
-00,090;+00,162;-00,233;-15,2400;+04,0850;-02,1460;+00,242375;+02,050848;-00,139141;+031,90;+101,17
-00,087;+00,161;-00,233;-15,8790;+03,7430;+00,2630;+00,185529;+01,464030;+00,022615;+031,90;+101,16
-00,087;+00,160;-00,237;-16,0480;+04,0860;+01,3590;+00,200905;+00,851809;+00,154930;+031,90;+101,17
-00,085;+00,160;-00,235;-16,3850;+04,7750;+00,9690;+00,259796;+00,246667;+00,268308;+031,90;+101,17
-00,084;+00,163;-00,236;-16,5430;+04,9890;+00,6920;+00,140365;-00,249377;+00,442035;+031,90;+101,17
-00,082;+00,159;-00,234;-16,0770;+05,2010;-00,2270;-00,172764;-00,715709;+00,687422;+031,90;+101,17
-00,084;+00,165;-00,235;-10,3020;+03,3520;+12,4720;-00,878733;-01,703578;+00,489995;+031,90;+101,17
-00,087;+00,164;-00,228;-16,7420;+01,9600;+00,2870;-01,631703;-03,026389;+00,836521;+031,90;+101,17
-00,088;+00,168;-00,226;+05,8390;+01,1100;-15,6300;-01,712859;-02,427319;+00,749033;+031,90;+101,17
-00,091;+00,170;-00,219;+15,0650;-00,9220;-16,8510;-01,140698;-04,019252;+00,477676;+031,90;+101,19
-00,094;+00,174;-00,213;-08,9610;-05,5890;-08,3480;-00,965733;-04,518572;+00,328588;+031,90;+101,16
-00,100;+00,173;-00,204;-18,6240;-03,7150;-14,4940;-01,064658;-03,794316;-00,157444;+031,90;+101,17
-00,103;+00,175;-00,199;-08,2220;-00,0950;-24,6050;-00,444061;-03,115004;-00,646376;+031,90;+101,17
-00,108;+00,174;-00,190;-03,9040;+05,2460;-16,5080;-00,564284;-02,760852;-00,332424;+031,90;+101,17
-00,110;+00,177;-00,189;-01,2720;+06,6500;-08,7950;-00,492142;-02,744768;+00,026335;+031,90;+101,17
-00,113;+00,176;-00,186;+00,4590;+05,2680;-06,5230;-00,001555;-02,850025;+00,117881;+031,90;+101,17
-00,116;+00,176;-00,183;-00,5180;+03,0380;-06,7670;+00,401571;-03,034226;+00,153597;+031,90;+101,17
-00,117;+00,175;-00,178;-04,8860;+00,3110;-11,5130;+00,502564;-03,002761;+00,271982;+031,90;+101,19
-00,119;+00,176;-00,177;-09,4350;-03,2540;-16,7390;+00,545505;-02,669268;+00,198098;+031,90;+101,17
-00,120;+00,176;-00,173;-08,6440;-05,8980;-15,5810;+00,442028;-02,155184;+00,048601;+031,90;+101,17
-00,122;+00,177;-00,173;-07,2080;-06,2570;-16,4250;-00,019921;-01,797337;-00,044054;+031,90;+101,17
-00,123;+00,174;-00,167;-05,7520;-02,8410;-13,9560;-00,232629;-01,441309;-00,039673;+031,90;+101,17
-00,126;+00,176;-00,167;-06,1620;+00,9910;-13,2570;-00,398034;-01,269976;+00,048699;+031,90;+101,19
-00,126;+00,176;-00,162;-03,2470;-00,1330;-11,5180;-00,493241;-01,140342;+00,026324;+031,90;+101,17
-00,125;+00,175;-00,162;-06,2080;-01,4600;-12,6990;-00,599953;-00,945752;-00,002754;+031,90;+101,17
-00,126;+00,176;-00,157;-05,0740;-01,4710;-10,8360;-00,753074;-00,732199;+00,018084;+031,90;+101,19
-00,127;+00,177;-00,156;-04,1340;+00,5560;-10,8850;-00,799141;-00,568835;+00,050998;+031,90;+101,17
-00,127;+00,175;-00,152;-03,9930;+01,6540;-11,3270;-00,669647;-00,434287;+00,048608;+031,90;+101,17
-00,127;+00,178;-00,153;-04,7180;+02,3930;-12,0840;-00,329238;-00,343837;+00,006099;+031,90;+101,17
-00,127;+00,175;-00,149;-03,1530;+00,1890;-09,7210;-00,182446;-00,324812;-00,055808;+031,90;+101,17
-00,129;+00,176;-00,151;-03,5860;-00,0340;-10,0720;-00,118089;-00,298341;-00,054237;+031,90;+101,17
-00,128;+00,178;-00,148;-03,5830;+00,2300;-09,5770;-00,055340;-00,247690;-00,056930;+031,90;+101,17
-00,128;+00,179;-00,151;-03,1170;-00,1150;-09,2580;-00,031089;-00,249318;-00,066615;+031,90;+101,19
-00,130;+00,177;-00,147;-03,3810;-00,1830;-09,3430;-00,024086;-00,240199;-00,066602;+031,90;+101,17
-00,129;+00,179;-00,149;-03,4930;-00,2850;-09,3280;-00,047191;-00,186647;-00,065077;+031,90;+101,17
-00,129;+00,177;-00,147;-03,1140;-00,2930;-08,9790;-00,062790;-00,165684;-00,058567;+031,90;+101,17
-00,130;+00,181;-00,147;-03,1660;-00,3850;-09,0390;-00,051410;-00,179073;-00,048225;+031,90;+101,17
-00,129;+00,178;-00,147;-03,0010;-00,2850;-09,0930;-00,014133;-00,209526;-00,041996;+031,90;+101,17
-00,130;+00,179;-00,146;-03,3770;-00,1770;-09,2550;+00,015673;-00,213979;-00,034375;+031,90;+101,17
-00,131;+00,177;-00,144;-03,3450;-00,1480;-09,2060;+00,027684;-00,182205;-00,034161;+031,90;+101,18
-00,130;+00,179;-00,146;-03,5550;-00,2250;-09,2590;+00,033874;-00,162577;-00,034159;+031,90;+101,17
-00,131;+00,179;-00,146;-03,5200;-00,2050;-09,1960;+00,021437;-00,120833;-00,028771;+031,90;+101,17
-00,131;+00,178;-00,144;-03,5550;-00,2510;-09,2150;+00,003677;-00,083566;-00,021964;+031,90;+101,19
-00,130;+00,177;-00,145;-03,4300;-00,2190;-09,1270;-00,013880;-00,051994;-00,018661;+031,90;+101,16
-00,130;+00,177;-00,148;-03,2550;-00,1820;-08,9170;-00,002623;-00,051865;-00,018907;+031,90;+101,19
-00,130;+00,177;-00,145;-03,2050;-00,1830;-08,9490;+00,012921;-00,072894;-00,023326;+031,90;+101,17
-00,131;+00,179;-00,147;-03,1860;-00,2940;-08,9220;+00,036175;-00,104942;-00,025281;+031,90;+101,17
-00,129;+00,176;-00,145;-03,0970;-00,1910;-08,7970;+00,070189;-00,149141;-00,029650;+031,90;+101,17
-00,131;+00,179;-00,146;-03,2580;-00,3490;-08,9520;+00,096121;-00,170679;-00,029918;+031,90;+101,16
-00,131;+00,177;-00,146;-03,3920;-00,2570;-08,9860;+00,104071;-00,184095;-00,028571;+031,90;+101,16
-00,131;+00,179;-00,145;-03,5170;-00,2490;-09,0110;+00,101505;-00,172111;-00,029763;+031,90;+101,17
-00,131;+00,176;-00,145;-03,5600;-00,1260;-09,2510;+00,065098;-00,133630;-00,026425;+031,90;+101,17
-00,129;+00,176;-00,148;-03,4350;-00,3770;-09,0350;+00,041238;-00,112604;-00,020073;+031,90;+101,19
-00,130;+00,177;-00,143;-03,3910;-00,2270;-09,0550;+00,040258;-00,113260;-00,014981;+031,90;+101,16
-00,131;+00,178;-00,144;-03,5620;-00,2930;-09,0220;+00,035226;-00,090433;-00,011874;+031,90;+101,17
-00,131;+00,175;-00,145;-03,5590;-00,1660;-09,0840;+00,020834;-00,066983;-00,013207;+031,90;+101,17
-00,132;+00,178;-00,147;-03,3750;-00,1960;-08,9020;+00,013766;-00,061973;-00,016179;+031,90;+101,17
-00,131;+00,175;-00,145;-02,9510;-00,1940;-08,6420;+00,050329;-00,107207;-00,029104;+031,90;+101,17
-00,131;+00,176;-00,146;-02,9100;-00,3230;-08,6100;+00,108880;-00,203949;-00,036028;+031,90;+101,19
-00,132;+00,177;-00,146;-03,0980;-00,2200;-08,5190;+00,154245;-00,278469;-00,050080;+031,90;+101,17
-00,132;+00,175;-00,144;-02,9030;-00,2840;-08,5390;+00,219065;-00,382229;-00,069775;+031,90;+101,16
-00,131;+00,176;-00,143;-03,7710;-00,3210;-09,0990;+00,211449;-00,379194;-00,070025;+031,90;+101,19
-00,133;+00,176;-00,143;-03,5400;-00,1570;-08,9020;+00,201451;-00,326829;-00,075824;+031,90;+101,17
-00,133;+00,175;-00,143;-03,5670;-00,2330;-08,9090;+00,200633;-00,322685;-00,082390;+031,90;+101,16
-00,132;+00,175;-00,145;-03,8320;-00,2950;-09,0660;+00,170035;-00,297263;-00,084352;+031,90;+101,16
-00,133;+00,176;-00,142;-03,3930;-00,4150;-08,7400;+00,151169;-00,313800;-00,078548;+031,90;+101,17
-00,135;+00,175;-00,143;-03,1000;-00,4680;-08,5490;+00,159315;-00,374504;-00,075577;+031,90;+101,17
-00,134;+00,175;-00,143;-03,2910;-00,3950;-08,5390;+00,178159;-00,490109;-00,069025;+031,90;+101,17
-00,136;+00,176;-00,144;-03,6620;-00,5810;-08,8140;+00,198924;-00,508315;-00,067873;+031,90;+101,17
-00,135;+00,176;-00,140;-03,9140;-00,6160;-08,9410;+00,185999;-00,472392;-00,060377;+031,90;+101,16
-00,134;+00,177;-00,141;-03,9890;-00,5790;-09,0160;+00,169704;-00,450246;-00,057489;+031,90;+101,17
-00,134;+00,174;-00,141;-03,8890;-00,6480;-09,1380;+00,123234;-00,474225;-00,043058;+031,90;+101,17
-00,135;+00,176;-00,142;-03,9490;-00,4850;-09,0360;+00,094959;-00,524229;-00,013834;+031,90;+101,16
-00,135;+00,173;-00,139;-03,8930;-00,6390;-08,9220;+00,053054;-00,584552;+00,011518;+031,90;+101,16
-00,135;+00,175;-00,141;-03,8560;-00,6080;-08,8220;+00,015298;-00,666867;+00,036071;+031,90;+101,17
-00,135;+00,175;-00,136;-04,3180;-00,4900;-08,9780;-00,020332;-00,750062;+00,058853;+031,90;+101,17
-00,135;+00,176;-00,139;-04,2070;-00,4470;-08,8000;-00,114638;-00,805438;+00,084776;+031,90;+101,17
-00,136;+00,174;-00,136;-04,1730;-00,0330;-08,6300;-00,178290;-00,923310;+00,051611;+031,90;+101,17
-00,137;+00,176;-00,134;-04,0090;-00,3690;-08,4600;-00,464408;-01,074637;-00,010898;+031,90;+101,17
-00,136;+00,174;-00,130;-04,4080;-00,5310;-08,5890;-00,611539;-01,170056;-00,007319;+031,90;+101,16
-00,138;+00,176;-00,128;-05,4240;-00,0950;-08,6490;-00,521371;-01,212295;+00,013744;+031,90;+101,16
-00,139;+00,176;-00,122;-04,8270;-00,8230;-08,4970;-00,779485;-01,116988;-00,052352;+031,90;+101,17
-00,138;+00,177;-00,122;-03,9590;-00,8890;-09,0630;-00,573769;-01,344832;+00,042497;+031,90;+101,17
-00,137;+00,175;-00,117;-04,7910;-00,9150;-08,4340;-00,638808;-02,176232;+00,158302;+031,90;+101,17
-00,138;+00,178;-00,114;-03,5300;-01,4510;-08,7130;-00,764033;-02,676527;+00,336682;+031,90;+101,16
-00,137;+00,178;-00,106;-02,6760;-01,2900;-09,8780;-01,484635;-03,521508;+00,625884;+031,90;+101,17
-00,137;+00,180;-00,096;-04,8990;-01,5310;-11,0240;-01,855502;-04,583810;+00,757605;+031,90;+101,17
-00,135;+00,180;-00,084;-04,2060;+00,2480;-11,2180;-02,471133;-05,485308;+00,962077;+031,90;+101,17
-00,132;+00,182;-00,073;-06,3620;+00,2230;-15,0240;-03,420951;-06,809394;+00,935115;+031,90;+101,16
-00,127;+00,180;-00,052;-07,2140;+04,3650;-24,2670;-03,542029;-07,655356;+00,781273;+031,90;+101,16
-00,123;+00,183;-00,038;-11,2000;-01,2670;-33,4590;-02,467607;-06,745097;+00,177722;+031,90;+101,17
-00,118;+00,179;-00,022;-15,7390;-07,1560;-24,6620;-02,099519;-06,723678;+00,226483;+031,90;+101,17
-00,113;+00,180;-00,013;-03,0640;-08,1850;-22,7550;-02,669199;-05,435306;+01,294885;+031,90;+101,16
-00,105;+00,178;+00,004;-01,1360;-02,6970;-18,0390;-01,915053;-05,206118;+01,856808;+031,90;+101,17
-00,098;+00,179;+00,010;-32,4090;+08,2170;-33,4730;-02,291506;-03,593909;+00,534068;+031,90;+101,19
-00,093;+00,176;+00,020;-06,4960;+01,2990;-27,8340;-00,968117;-02,151796;-00,217108;+031,90;+101,19
-00,092;+00,176;+00,021;-02,1920;-00,4230;-17,4070;-00,125941;-01,618342;+00,004228;+031,90;+101,18
-00,088;+00,175;+00,025;-01,6330;-01,2660;-11,2570;-00,251861;-01,517232;+00,204134;+031,90;+101,19
-00,087;+00,177;+00,026;-02,1500;-01,8560;-11,1310;-00,573095;-01,600215;+00,412406;+031,90;+101,17
-00,083;+00,174;+00,028;-03,4280;-00,6040;-14,4370;-00,722865;-01,307389;+00,440191;+031,90;+101,19
-00,082;+00,178;+00,030;-04,0100;+00,5100;-15,8800;-00,599530;-00,811192;+00,517263;+031,90;+101,17
-00,078;+00,174;+00,033;-03,7960;+00,8150;-14,4950;-00,396894;-00,277809;+00,632426;+031,90;+101,17
-00,080;+00,176;+00,034;-03,0320;+00,0650;-11,4520;-00,230628;+00,110095;+00,725886;+031,90;+101,17
-00,077;+00,174;+00,035;-02,8570;-01,5110;-09,4570;-00,192370;+00,361223;+00,747444;+031,90;+101,17
-00,076;+00,177;+00,034;-03,5490;-02,8260;-09,1850;-00,180248;+00,604111;+00,627605;+031,90;+101,18
-00,076;+00,177;+00,034;-04,3030;-03,4150;-09,2230;-00,142283;+00,941941;+00,370686;+031,90;+101,17
-00,077;+00,178;+00,033;-04,2670;-03,2730;-08,5970;-00,076909;+01,321702;+00,096717;+031,90;+101,18
-00,080;+00,176;+00,035;-03,5440;-02,7180;-07,0420;-00,002228;+01,650425;-00,115315;+031,90;+101,19
-00,081;+00,178;+00,032;-03,1320;-01,6530;-05,8210;+00,135275;+01,864313;-00,250178;+031,90;+101,17
-00,085;+00,176;+00,027;-02,8930;-00,6290;-05,5580;+00,374025;+02,060128;-00,351556;+031,90;+101,17
-00,088;+00,177;+00,025;-03,0220;-00,4170;-05,7310;+00,612788;+02,282619;-00,438847;+031,90;+101,17
-00,092;+00,179;+00,020;-02,9960;-00,2500;-06,0060;+00,785042;+02,533602;-00,512048;+031,90;+101,18
-00,095;+00,180;+00,015;-02,8520;+00,2750;-05,6820;+00,886660;+02,778898;-00,564108;+031,90;+101,17
-00,101;+00,179;+00,011;-02,5260;+01,1790;-05,2740;+00,960697;+02,998981;-00,548807;+031,90;+101,19
-00,104;+00,181;+00,005;-02,6410;+02,1270;-05,4050;+00,996837;+03,205727;-00,464199;+031,90;+101,17
-00,108;+00,181;-00,001;-02,5560;+02,3470;-05,2870;+01,024128;+03,405426;-00,334864;+031,90;+101,16
-00,111;+00,183;-00,004;-02,7150;+01,9270;-04,6800;+01,041897;+03,560684;-00,229967;+031,90;+101,17
-00,115;+00,181;-00,014;-02,6240;+01,5370;-04,0290;+01,100994;+03,655582;-00,197940;+031,90;+101,16
-00,118;+00,183;-00,021;-02,9560;+00,8240;-04,1260;+01,189844;+03,714377;-00,227056;+031,90;+101,17
-00,122;+00,184;-00,026;-03,3680;+00,1850;-04,2780;+01,255077;+03,795434;-00,311103;+031,90;+101,16
-00,125;+00,186;-00,036;-03,8120;+00,0040;-04,2830;+01,324939;+03,871000;-00,415701;+031,90;+101,17
-00,129;+00,182;-00,040;-03,9270;-00,0360;-04,1320;+01,389233;+03,935107;-00,535493;+031,90;+101,17
-00,131;+00,184;-00,049;-04,2800;+00,0140;-04,3820;+01,456122;+03,980056;-00,647615;+031,90;+101,17
-00,133;+00,185;-00,060;-04,5110;+00,0740;-04,4360;+01,525314;+04,017209;-00,769855;+031,90;+101,17
-00,137;+00,183;-00,072;-04,6490;+00,2640;-04,2000;+01,589760;+04,017023;-00,899091;+031,90;+101,17
-00,139;+00,180;-00,080;-04,7220;+00,8690;-04,2090;+01,628925;+03,965057;-01,009486;+031,90;+101,17
-00,142;+00,181;-00,087;-04,9430;+02,2980;-04,4320;+01,681296;+03,933773;-01,064291;+031,90;+101,17
-00,143;+00,179;-00,097;-05,0170;+03,6500;-04,7130;+01,688917;+03,919327;-01,007922;+031,90;+101,17
-00,145;+00,180;-00,109;-05,1210;+04,9280;-05,3560;+01,645268;+03,905908;-00,818299;+031,90;+101,17
-00,145;+00,176;-00,118;-05,3170;+05,8760;-06,5460;+01,615361;+03,887193;-00,518683;+031,90;+101,17
-00,146;+00,176;-00,128;-06,2450;+05,9570;-08,4330;+01,633296;+03,918519;-00,213731;+031,90;+101,17
-00,144;+00,175;-00,138;-07,2640;+05,1510;-10,0870;+01,704616;+04,007462;+00,019314;+031,90;+101,19
-00,145;+00,176;-00,146;-08,1390;+03,8690;-10,8480;+01,708216;+04,108034;+00,160927;+031,90;+101,17
-00,141;+00,174;-00,158;-09,5410;+02,5730;-11,8120;+01,661102;+04,200882;+00,186773;+031,90;+101,17
-00,138;+00,172;-00,166;-10,3120;+02,3240;-11,3510;+01,610258;+04,272911;+00,112282;+031,90;+101,17
-00,133;+00,171;-00,178;-10,6350;+02,9020;-11,0560;+01,584497;+04,234613;+00,033792;+031,90;+101,19
-00,130;+00,173;-00,184;-10,8430;+03,0710;-11,9300;+01,508465;+04,170939;-00,002550;+031,90;+101,19
-00,128;+00,171;-00,196;-11,2230;+03,1320;-13,0340;+01,416501;+04,164646;-00,049063;+031,90;+101,16
-00,123;+00,170;-00,203;-11,0660;+03,4700;-12,2050;+01,311726;+04,144783;-00,114392;+031,90;+101,16
-00,119;+00,168;-00,210;-10,6160;+03,8720;-11,0280;+01,154473;+03,990980;-00,122271;+031,90;+101,17
-00,114;+00,167;-00,217;-10,7670;+04,0610;-11,2160;+00,979845;+03,767638;-00,090264;+031,90;+101,17
-00,108;+00,164;-00,223;-11,0090;+03,6250;-11,6830;+00,793775;+03,575446;-00,055857;+031,90;+101,17
-00,106;+00,165;-00,230;-11,1520;+03,0230;-11,3070;+00,607594;+03,383313;-00,015431;+031,90;+101,16
-00,100;+00,163;-00,237;-11,6260;+02,7850;-10,1170;+00,483384;+03,136618;+00,008208;+031,90;+101,17
-00,098;+00,167;-00,238;-12,1320;+01,6490;-08,8410;+00,359903;+02,809002;+00,056279;+031,90;+101,17
-00,091;+00,162;-00,244;-13,1450;-00,0180;-06,9250;+00,220307;+02,437274;+00,067325;+031,90;+101,17
-00,090;+00,164;-00,247;-13,6610;-01,0510;-04,1940;+00,113628;+01,963521;+00,006972;+031,90;+101,16
-00,087;+00,160;-00,248;-14,4100;-01,3020;-01,9920;+00,082888;+01,388894;-00,068676;+031,90;+101,17
-00,085;+00,162;-00,248;-15,1380;-00,6870;-00,3220;+00,142410;+00,789689;-00,182396;+031,90;+101,17
-00,084;+00,160;-00,249;-15,0800;+00,2320;+00,9730;+00,189342;+00,132187;-00,295369;+031,90;+101,17
-00,086;+00,162;-00,251;-14,8590;+01,0270;+00,3940;+00,038854;-00,499353;-00,342427;+031,90;+101,17
-00,088;+00,160;-00,249;-14,0850;+02,6440;-01,1040;-00,256332;-00,976549;-00,302766;+031,90;+101,17
-00,089;+00,160;-00,249;-13,1920;+04,5180;-03,0190;-00,519763;-01,402561;-00,092540;+031,90;+101,17
-00,091;+00,162;-00,244;-12,4010;+04,8770;-05,0160;-00,696897;-01,718245;+00,228284;+031,90;+101,17
-00,092;+00,165;-00,244;+20,0090;-01,6020;-26,3010;-01,796589;+01,019542;+01,003398;+031,90;+101,18
-00,090;+00,167;-00,241;+33,0410;+01,1760;-15,2110;-00,836180;-02,101150;+01,329722;+031,90;+101,17
-00,094;+00,168;-00,238;+24,3750;-15,4130;+06,6440;-01,074668;-04,735478;+00,976227;+031,90;+101,16
-00,099;+00,173;-00,225;-27,9080;-14,5820;+02,3770;-02,620620;-04,876366;+00,690406;+031,90;+101,17
-00,104;+00,178;-00,217;-15,2980;+05,9270;-11,2140;-00,879162;-03,907909;-00,894690;+031,90;+101,19
-00,113;+00,172;-00,208;-04,6230;+06,0990;-31,2710;-00,690333;-03,726230;-00,688112;+031,90;+101,17
-00,115;+00,178;-00,208;-09,2150;+14,4970;-18,3810;-00,619190;-02,925030;+00,046276;+031,90;+101,17
-00,119;+00,177;-00,198;-01,0520;+09,7970;-11,4620;-00,051039;-02,743384;+00,322444;+031,90;+101,17
-00,120;+00,177;-00,198;-01,4800;+02,1110;-10,3850;+00,328423;-02,718377;+00,473558;+031,90;+101,17
-00,123;+00,177;-00,191;-02,7270;-03,6350;-09,1160;+00,425328;-02,689444;+00,423999;+031,90;+101,17
-00,125;+00,180;-00,192;-05,8340;-07,3430;-12,7320;+00,462184;-02,631317;+00,164487;+031,90;+101,17
-00,126;+00,176;-00,186;-08,3150;-08,3890;-14,8880;+00,244111;-02,274389;-00,010238;+031,90;+101,17
-00,129;+00,179;-00,183;-05,7020;-05,3270;-13,8940;-00,002034;-01,958512;-00,109731;+031,90;+101,19
-00,129;+00,176;-00,180;-07,4460;-00,9470;-15,2790;-00,329201;-01,634074;+00,068350;+031,90;+101,17
-00,132;+00,178;-00,179;-05,3080;-00,1340;-13,6140;-00,480370;-01,303817;+00,121971;+031,90;+101,17
-00,131;+00,176;-00,174;-04,4330;-01,9870;-13,0140;-00,614993;-01,119823;+00,145984;+031,90;+101,19
-00,132;+00,181;-00,173;-04,9750;-00,8090;-12,2270;-00,630894;-00,856057;+00,106514;+031,90;+101,19
-00,133;+00,180;-00,168;-04,5480;+01,0250;-11,8000;-00,631437;-00,590839;+00,107753;+031,90;+101,17
-00,133;+00,181;-00,170;-03,0740;+00,6020;-10,5270;-00,563287;-00,450345;+00,096719;+031,90;+101,17
-00,133;+00,181;-00,166;-04,1850;-00,3550;-11,2200;-00,565239;-00,349463;+00,084270;+031,90;+101,17
-00,133;+00,182;-00,166;-03,4090;+00,6880;-10,6170;-00,519114;-00,190531;+00,065391;+031,90;+101,16
-00,134;+00,179;-00,163;-02,4940;+00,8480;-09,9690;-00,379566;-00,158107;+00,031073;+031,90;+101,17
-00,133;+00,183;-00,164;-02,6400;-00,0430;-09,6610;-00,303463;-00,157537;+00,010657;+031,90;+101,18
-00,133;+00,182;-00,162;-02,4420;-00,4140;-09,0160;-00,280382;-00,157216;+00,004443;+031,90;+101,17
-00,134;+00,183;-00,163;-02,3520;-00,3230;-09,4090;-00,276906;-00,201065;+00,007687;+031,90;+101,16
-00,133;+00,183;-00,157;-03,2900;-00,1970;-10,1570;-00,236304;-00,183699;+00,007876;+031,90;+101,17
-00,134;+00,183;-00,162;-02,8410;-00,7480;-09,1740;-00,169673;-00,147263;-00,009851;+031,90;+101,18
-00,133;+00,184;-00,159;-02,1100;-00,1370;-09,2970;-00,081231;-00,215902;-00,006901;+031,90;+101,17
-00,133;+00,183;-00,160;-03,2430;+00,3150;-10,2120;-00,037078;-00,171992;+00,002208;+031,90;+101,18
-00,133;+00,184;-00,159;-03,4640;+00,3350;-10,3970;+00,044216;-00,085318;-00,024958;+031,90;+101,17
-00,134;+00,183;-00,160;-02,8460;+00,1440;-09,7020;+00,104374;-00,033339;-00,044702;+031,90;+101,17
-00,134;+00,183;-00,158;-02,7340;-00,1560;-09,4800;+00,130136;-00,036667;-00,051941;+031,90;+101,17
-00,134;+00,184;-00,161;-02,9460;-00,2780;-09,6260;+00,153151;-00,032534;-00,057936;+031,90;+101,17
-00,134;+00,181;-00,157;-02,6610;-00,5810;-09,1900;+00,158105;-00,039022;-00,063101;+031,90;+101,19
-00,135;+00,183;-00,161;-02,7580;-00,4950;-09,3710;+00,149091;-00,045065;-00,053027;+031,90;+101,16
-00,135;+00,180;-00,159;-02,8850;-00,4510;-09,2540;+00,121915;-00,010341;-00,044157;+031,90;+101,19
-00,135;+00,182;-00,161;-02,6500;-00,7410;-08,8930;+00,073061;+00,005696;-00,039617;+031,90;+101,17
-00,135;+00,182;-00,159;-02,5120;-00,7170;-08,7470;-00,004214;+00,004118;-00,031221;+031,90;+101,17
-00,135;+00,184;-00,159;-02,5020;-00,7470;-08,7840;-00,068814;-00,017463;-00,020171;+031,90;+101,17
-00,135;+00,181;-00,158;-02,4900;-00,5800;-08,8740;-00,105365;-00,044662;-00,009577;+031,90;+101,18
-00,135;+00,183;-00,160;-02,5120;-00,4590;-08,9310;-00,142403;-00,069602;-00,006781;+031,90;+101,17
-00,134;+00,183;-00,159;-02,3300;-00,5050;-08,8230;-00,167730;-00,112870;-00,001526;+031,90;+101,19
-00,136;+00,184;-00,158;-02,3230;-00,3840;-08,9540;-00,180507;-00,175105;+00,005453;+031,90;+101,16
-00,135;+00,182;-00,155;-02,3590;-00,0800;-09,1570;-00,156690;-00,268293;+00,027570;+031,90;+101,16
-00,134;+00,184;-00,159;-02,6590;-00,3840;-08,8990;-00,175603;-00,334988;+00,013918;+031,90;+101,18
-00,135;+00,182;-00,155;-02,6340;-00,4540;-08,6550;-00,224920;-00,413325;+00,010155;+031,90;+101,16
-00,135;+00,184;-00,156;-02,8080;-00,9610;-08,4640;-00,257743;-00,482465;+00,008905;+031,90;+101,16
-00,136;+00,183;-00,154;-02,6840;-00,8680;-08,9400;-00,253680;-00,487678;+00,028340;+031,90;+101,17
-00,137;+00,185;-00,154;-02,9510;-00,1230;-09,3660;-00,217331;-00,488371;+00,040966;+031,90;+101,17
-00,136;+00,182;-00,153;-02,6320;-00,2500;-09,1790;-00,199933;-00,487768;+00,048570;+031,90;+101,17
-00,136;+00,187;-00,152;-03,0490;-00,3380;-08,9960;-00,216858;-00,487351;+00,077178;+031,90;+101,17
-00,136;+00,183;-00,148;-02,9160;-00,4400;-09,0600;-00,267556;-00,498299;+00,091376;+031,90;+101,17
-00,137;+00,186;-00,149;-03,4330;-00,4810;-09,2360;-00,235074;-00,484312;+00,108652;+031,90;+101,17
-00,137;+00,184;-00,143;-03,4930;-00,0550;-09,5120;-00,214825;-00,453960;+00,113347;+031,90;+101,17
-00,137;+00,185;-00,145;-03,2360;-00,1780;-09,3580;-00,137910;-00,420395;+00,117207;+031,90;+101,17
-00,136;+00,185;-00,145;-03,3330;+00,0690;-09,4110;-00,079098;-00,439224;+00,105612;+031,90;+101,17
-00,136;+00,184;-00,144;-03,4590;-00,0780;-09,3140;-00,023063;-00,401448;+00,097441;+031,90;+101,17
-00,135;+00,183;-00,142;-03,5100;+00,2790;-09,3790;+00,065280;-00,399563;+00,086804;+031,90;+101,17
-00,137;+00,184;-00,142;-03,2870;-00,2710;-08,9400;+00,043332;-00,381279;+00,071092;+031,90;+101,17
-00,137;+00,185;-00,142;-03,5820;+00,0790;-09,3030;+00,054152;-00,378817;+00,057899;+031,90;+101,17
-00,136;+00,187;-00,144;-03,5630;+00,0150;-09,0810;+00,008267;-00,357592;+00,050079;+031,90;+101,17
-00,135;+00,185;-00,142;-03,5070;-00,0540;-09,1590;-00,012581;-00,376577;+00,056531;+031,90;+101,19
-00,138;+00,186;-00,141;-03,7120;-00,0110;-09,2490;-00,023469;-00,359117;+00,061567;+031,90;+101,17
-00,137;+00,186;-00,137;-03,7710;-00,0440;-09,2550;-00,039102;-00,358483;+00,060762;+031,90;+101,17
-00,137;+00,186;-00,140;-03,5470;-00,1230;-09,0230;-00,052762;-00,378610;+00,069102;+031,90;+101,16
-00,136;+00,185;-00,139;-03,6130;-00,0070;-09,0520;-00,058585;-00,405652;+00,095026;+031,90;+101,17
-00,137;+00,187;-00,138;-03,7170;-00,2330;-08,8700;-00,061102;-00,468616;+00,086202;+031,90;+101,19
-00,136;+00,187;-00,137;-02,9720;+00,3290;-08,7320;-00,104192;-00,514602;+00,052674;+031,90;+101,19
-00,137;+00,189;-00,138;-03,7410;+00,0190;-08,6960;-00,153054;-00,583979;+00,016391;+031,90;+101,17
-00,137;+00,185;-00,135;-03,8990;+00,2280;-08,8460;-00,246819;-00,612826;-00,028393;+031,90;+101,17
-00,137;+00,190;-00,134;-03,9230;+00,2460;-08,7790;-00,331801;-00,647727;-00,057552;+031,90;+101,18
-00,137;+00,187;-00,130;-03,9370;+00,0920;-08,8210;-00,380796;-00,710065;-00,075314;+031,90;+101,18
-00,138;+00,187;-00,130;-03,7060;+00,0370;-08,7800;-00,403009;-00,808661;-00,085246;+031,90;+101,17
-00,138;+00,187;-00,127;-04,1080;-00,0470;-09,0710;-00,371003;-00,944415;-00,075762;+031,90;+101,17
-00,139;+00,189;-00,127;-03,9890;-00,2000;-09,0370;-00,299613;-01,259480;-00,032472;+031,90;+101,17
-00,139;+00,186;-00,122;-04,1950;-00,4930;-09,1220;-00,312955;-01,419624;+00,047784;+031,90;+101,17
-00,140;+00,188;-00,121;-03,8350;-01,1270;-09,5230;-00,504480;-01,933151;+00,135801;+031,90;+101,17
-00,139;+00,188;-00,114;-03,6930;-00,8980;-09,0940;-00,627643;-02,636599;+00,215774;+031,90;+101,17
-00,139;+00,189;-00,110;-04,3610;-00,5470;-09,6140;-01,010524;-03,511839;+00,352486;+031,90;+101,19
-00,138;+00,189;-00,098;-04,3570;+00,2840;-09,9090;-01,299415;-04,286041;+00,546427;+031,90;+101,17
-00,138;+00,191;-00,091;-04,7470;-00,1680;-10,6900;-01,169725;-05,379200;+00,783396;+031,90;+101,17
-00,135;+00,191;-00,076;-04,5360;-00,9290;-14,4100;-00,941381;-06,721090;+00,852576;+031,90;+101,18
-00,132;+00,194;-00,067;-05,9260;+03,6730;-16,4020;-00,987778;-08,009151;+00,718901;+031,90;+101,17
-00,127;+00,191;-00,048;-08,9750;+01,6880;-18,4350;-01,382090;-08,532351;+00,472419;+031,90;+101,19
-00,123;+00,196;-00,038;-08,1570;+01,2710;-35,5850;-00,686681;-07,530925;+00,257715;+031,90;+101,17
-00,117;+00,194;-00,023;-08,5680;+02,4870;-26,3040;+00,022684;-06,814009;-00,068773;+031,90;+101,16
-00,112;+00,194;-00,016;+00,8740;+00,1660;-14,5410;-00,623264;-06,390161;-00,120446;+031,90;+101,19
-00,106;+00,193;-00,007;-06,1180;+05,5040;-14,8500;+00,853471;-05,752526;+00,764877;+031,90;+101,17
-00,101;+00,196;-00,002;-33,5040;+04,2430;-37,9160;+00,112454;-02,799774;+01,673272;+031,90;+101,19
-00,093;+00,197;+00,001;-01,3470;+01,1140;-29,9950;+00,425134;-01,821051;+01,724255;+031,90;+101,17
-00,090;+00,202;-00,001;-00,2410;-01,5060;-16,7830;+00,363721;-00,793432;+02,011557;+031,90;+101,19
-00,085;+00,202;+00,002;+01,3350;-02,4570;-11,4280;+00,311039;-00,779484;+02,005166;+031,90;+101,17
-00,081;+00,205;+00,000;+00,2000;-02,9650;-11,5550;+00,270339;-00,634090;+01,860070;+031,90;+101,18
-00,074;+00,206;-00,001;-00,4150;-03,0710;-13,3470;+00,427721;-00,189744;+01,669604;+031,90;+101,19
-00,072;+00,211;+00,001;+00,2530;-03,4340;-12,5150;+00,606606;+00,350327;+01,375546;+031,90;+101,17
-00,069;+00,210;-00,003;+01,4250;-03,8730;-10,1980;+00,639073;+00,767603;+01,117976;+031,90;+101,17
-00,069;+00,213;-00,004;+01,7640;-03,6230;-08,7150;+00,570635;+01,042171;+00,878870;+031,90;+101,19
-00,067;+00,215;-00,009;+01,7660;-02,6420;-08,2390;+00,579824;+01,307319;+00,615249;+031,90;+101,17
-00,068;+00,216;-00,007;+01,6500;-01,0460;-08,3500;+00,772660;+01,597170;+00,376518;+031,90;+101,19
-00,068;+00,215;-00,013;+01,7720;+00,2750;-07,9500;+01,060767;+01,907921;+00,217244;+031,90;+101,19
-00,069;+00,219;-00,015;+01,7550;+00,8970;-07,3210;+01,288193;+02,189411;+00,128129;+031,90;+101,16
-00,071;+00,217;-00,023;+01,7370;+01,2130;-06,5780;+01,405062;+02,432035;+00,063185;+031,90;+101,17
-00,073;+00,221;-00,027;+01,3370;+01,7620;-06,5960;+01,458423;+02,643761;+00,019889;+031,90;+101,17
-00,075;+00,221;-00,035;+00,7620;+02,3380;-07,2760;+01,488418;+02,866687;+00,000161;+031,90;+101,19
-00,075;+00,224;-00,037;+00,4870;+02,6490;-07,4460;+01,516545;+03,086432;-00,004824;+031,90;+101,18
-00,077;+00,224;-00,047;+00,0530;+03,0350;-07,7430;+01,581721;+03,277189;-00,007528;+031,90;+101,18
-00,079;+00,224;-00,051;-00,7040;+03,6790;-08,2470;+01,670675;+03,460783;-00,009255;+031,90;+101,18
-00,079;+00,224;-00,058;-01,1900;+04,1800;-07,9440;+01,743496;+03,661390;+00,032975;+031,90;+101,19
-00,082;+00,228;-00,066;-01,5280;+04,7650;-07,6890;+01,778370;+03,810072;+00,124768;+031,90;+101,18
-00,082;+00,228;-00,076;-02,2000;+05,3740;-07,9780;+01,821631;+03,931937;+00,229941;+031,90;+101,19
-00,082;+00,229;-00,082;-02,5540;+05,5530;-07,9960;+01,868421;+03,995741;+00,335972;+031,90;+101,17
-00,081;+00,228;-00,091;-03,0050;+05,6410;-07,9390;+01,935261;+03,992445;+00,427851;+031,90;+101,16
-00,081;+00,231;-00,100;-03,2480;+05,9470;-08,0200;+02,032331;+03,955580;+00,513295;+031,90;+101,19
-00,080;+00,231;-00,108;-03,8070;+06,1040;-09,1070;+02,115940;+03,929651;+00,623492;+031,90;+101,18
-00,078;+00,231;-00,115;-04,7310;+05,8680;-10,2590;+02,173262;+03,987463;+00,753453;+031,90;+101,17
-00,073;+00,228;-00,127;-05,8340;+05,6320;-10,4920;+02,173143;+04,126252;+00,854014;+031,90;+101,17
-00,072;+00,232;-00,135;-06,4040;+05,7940;-10,3000;+02,165673;+04,175900;+00,948468;+031,90;+101,17
-00,066;+00,230;-00,143;-07,6220;+06,5750;-11,3150;+02,217890;+04,184176;+01,064520;+031,90;+101,17
-00,062;+00,232;-00,152;-08,3520;+07,1080;-13,2730;+02,436560;+04,184390;+01,218725;+031,90;+101,18
-00,055;+00,230;-00,162;-08,9900;+06,1570;-12,8730;+02,330609;+04,270897;+01,320821;+031,90;+101,16
-00,051;+00,231;-00,169;-10,0860;+05,7650;-13,7410;+02,246534;+04,262759;+01,420383;+031,90;+101,17
-00,042;+00,230;-00,178;-10,6880;+05,2110;-14,0790;+02,222288;+04,291213;+01,407091;+031,90;+101,17
-00,036;+00,230;-00,185;-11,0710;+04,7120;-13,9450;+02,221674;+04,282051;+01,317222;+031,90;+101,17
-00,029;+00,225;-00,196;-11,3920;+05,2070;-12,9220;+02,200432;+04,232307;+01,203267;+031,90;+101,20
-00,023;+00,228;-00,200;-11,6690;+06,6190;-11,9960;+02,119358;+04,114851;+01,182915;+031,90;+101,19
-00,016;+00,225;-00,206;-12,2120;+08,3890;-11,7690;+01,985310;+03,978313;+01,313325;+031,90;+101,17
-00,009;+00,225;-00,213;-12,9550;+09,9510;-12,1040;+01,884620;+03,874233;+01,534532;+031,90;+101,17
+00,002;+00,222;-00,218;-13,1440;+10,6950;-11,7670;+01,808631;+03,765108;+01,792143;+031,90;+101,17
+00,008;+00,221;-00,223;-13,3120;+09,6460;-10,3610;+01,641512;+03,593454;+01,987326;+031,90;+101,17
+00,020;+00,217;-00,227;-13,5890;+07,4270;-08,3570;+01,353503;+03,333653;+02,061375;+031,90;+101,19
+00,026;+00,218;-00,228;-14,0720;+04,7230;-06,9710;+00,990801;+02,991200;+01,982993;+031,90;+101,17
+00,037;+00,215;-00,229;-14,7140;+01,7100;-05,3730;+00,660148;+02,605807;+01,750613;+031,90;+101,19
+00,042;+00,215;-00,231;-15,9580;-00,7080;-02,8710;+00,425971;+02,174467;+01,404564;+031,90;+101,17
+00,049;+00,212;-00,231;-16,9830;-01,0620;+00,2690;+00,350837;+01,704644;+00,965242;+031,90;+101,19
+00,052;+00,215;-00,234;-16,7630;+00,7340;+02,7600;+00,381586;+01,079809;+00,567457;+031,90;+101,18
+00,055;+00,211;-00,233;-16,5920;+03,6050;+03,1220;+00,424914;+00,366894;+00,331497;+031,90;+101,17
+00,055;+00,211;-00,234;-16,4900;+05,5900;+01,2960;+00,198223;-00,225018;+00,320693;+031,90;+101,17
+00,056;+00,211;-00,233;-17,4700;+06,7040;-00,7290;-00,271130;-00,633158;+00,480616;+031,90;+101,19
+00,057;+00,213;-00,234;-07,5920;+06,4130;+02,4180;-01,871320;-02,472850;+00,516276;+031,90;+101,17
+00,054;+00,215;-00,227;-12,3760;+10,3290;-10,3340;-01,848928;-01,795083;+00,942036;+031,90;+101,17
+00,053;+00,219;-00,226;+24,2210;-02,1990;-14,6320;-01,643339;-02,669797;+00,714309;+031,90;+101,17
+00,050;+00,217;-00,224;+06,8710;-06,8600;-07,1330;-01,222334;-04,261637;+00,732706;+031,90;+101,19
+00,046;+00,222;-00,223;-15,6600;-04,7530;-03,8330;-01,313682;-04,475375;+00,091571;+031,90;+101,17
+00,040;+00,223;-00,220;-13,7280;+03,4000;-27,3770;-00,636837;-03,559382;-00,374351;+031,90;+101,19
+00,036;+00,225;-00,219;-08,9520;+06,6080;-24,8650;-00,655614;-02,720404;-00,066127;+031,90;+101,19
+00,033;+00,223;-00,216;-01,4680;+06,0190;-07,2840;-00,544867;-02,526151;+00,342973;+031,90;+101,17
+00,030;+00,225;-00,217;+01,5020;+01,2660;-03,8180;+00,062307;-02,720588;+00,275177;+031,90;+101,17
+00,026;+00,222;-00,219;-00,6210;-03,8640;-04,7490;+00,419733;-03,084280;+00,172917;+031,90;+101,19
+00,025;+00,224;-00,222;-03,2090;-05,0440;-08,3250;+00,832296;-03,441637;-00,002813;+031,90;+101,17
+00,019;+00,223;-00,221;-05,9230;-05,2130;-12,5070;+00,946130;-03,595370;-00,107570;+031,90;+101,17
+00,017;+00,224;-00,225;-14,5470;-04,2800;-23,6480;-00,099502;-02,997529;+00,242598;+031,90;+101,17
+00,012;+00,221;-00,219;-19,8910;-02,9950;-24,9580;-00,986122;-01,691737;+00,309964;+031,90;+101,19
+00,012;+00,223;-00,219;-04,2560;-00,1140;-10,9950;-01,168334;-00,927248;+00,252225;+031,90;+101,17
+00,010;+00,225;-00,217;-03,4280;+02,4220;-11,5470;-01,041325;-00,951197;+00,248810;+031,90;+101,19
+00,010;+00,228;-00,214;-06,5150;-00,6150;-11,7110;-01,049420;-00,631663;+00,221538;+031,90;+101,17
+00,010;+00,226;-00,209;-04,1390;-01,2730;-10,0310;-01,140350;-00,437803;+00,181014;+031,90;+101,19
+00,010;+00,231;-00,210;-04,8420;+01,0830;-11,4480;-01,113305;-00,296041;+00,205545;+031,90;+101,17
+00,011;+00,228;-00,206;-04,8230;+00,3080;-11,1810;-01,055851;-00,059156;+00,162833;+031,90;+101,18
+00,011;+00,234;-00,201;-03,5050;+00,7580;-10,2390;-00,904402;-00,007850;+00,121824;+031,90;+101,17
+00,011;+00,230;-00,201;-03,5500;+00,9550;-10,1170;-00,728648;-00,004080;+00,090707;+031,90;+101,17
+00,011;+00,234;-00,200;-03,1970;+00,6430;-09,6300;-00,590634;-00,020182;+00,053345;+031,90;+101,17
+00,011;+00,233;-00,195;-03,2870;+00,6610;-09,8260;-00,448203;-00,058681;+00,031074;+031,90;+101,17
+00,011;+00,235;-00,199;-04,1270;+00,5310;-10,1390;-00,314950;-00,029133;+00,006420;+031,90;+101,19
+00,012;+00,234;-00,196;-03,3540;-00,0320;-09,1820;-00,260877;-00,011021;-00,021976;+031,90;+101,19
+00,012;+00,234;-00,197;-03,4150;+00,0070;-09,2610;-00,217606;-00,020604;-00,032165;+031,90;+101,19
+00,013;+00,231;-00,195;-03,4710;-00,1910;-09,0440;-00,174630;-00,025556;-00,043581;+031,90;+101,18
+00,012;+00,235;-00,195;-02,9970;-00,5160;-08,6160;-00,146283;-00,061067;-00,054386;+031,90;+101,18
+00,011;+00,234;-00,194;-02,8950;-00,0380;-08,7230;-00,092997;-00,115185;-00,051443;+031,90;+101,17
+00,010;+00,236;-00,195;-03,2020;+00,1230;-08,9130;-00,060417;-00,148849;-00,059490;+031,90;+101,16
+00,010;+00,235;-00,194;-03,0260;+00,1100;-08,6930;-00,011380;-00,166710;-00,074668;+031,90;+101,17
+00,010;+00,235;-00,195;-03,2730;-00,1320;-08,8720;+00,022906;-00,195861;-00,082938;+031,90;+101,16
+00,010;+00,235;-00,192;-03,8470;-00,3230;-09,5040;+00,031865;-00,157561;-00,069536;+031,90;+101,19
+00,010;+00,236;-00,194;-02,6650;-00,0880;-08,7500;-00,019223;-00,147007;-00,081341;+031,90;+101,19
+00,009;+00,234;-00,192;-03,1230;-00,6390;-08,3110;-00,013985;-00,232142;-00,073877;+031,90;+101,17
+00,009;+00,237;-00,195;-02,6790;-00,0930;-08,2350;+00,007612;-00,295600;-00,073227;+031,90;+101,19
+00,008;+00,235;-00,193;-02,3590;-00,6270;-08,0260;+00,092756;-00,467226;-00,072003;+031,90;+101,18
+00,007;+00,236;-00,195;-02,8680;+00,2870;-08,4260;+00,167584;-00,590861;-00,077463;+031,90;+101,17
+00,006;+00,234;-00,195;-03,3800;-00,1100;-09,2210;+00,194763;-00,663690;-00,087137;+031,90;+101,18
+00,006;+00,235;-00,197;-03,7890;-00,3940;-09,1970;+00,149225;-00,689141;-00,072827;+031,90;+101,18
+00,005;+00,235;-00,196;-03,3860;-00,2680;-09,0620;+00,121391;-00,742182;-00,059527;+031,90;+101,17
+00,004;+00,234;-00,196;-04,1350;-00,4770;-09,4570;+00,078197;-00,736646;-00,027384;+031,90;+101,17
+00,004;+00,233;-00,193;-04,3140;-00,1190;-09,5160;+00,013621;-00,671206;+00,005050;+031,90;+101,19
+00,002;+00,234;-00,197;-04,4180;-00,2110;-09,2650;+00,002034;-00,570179;+00,027286;+031,90;+101,17
+00,002;+00,234;-00,196;-04,4230;-00,2410;-09,1490;-00,002596;-00,523875;+00,027004;+031,90;+101,17
+00,002;+00,234;-00,197;-04,4660;-00,2300;-09,0900;-00,008840;-00,471948;+00,024698;+031,90;+101,16
+00,001;+00,232;-00,195;-04,4600;-00,1440;-09,0800;-00,004676;-00,429714;+00,023628;+031,90;+101,17
+00,001;+00,234;-00,195;-04,7180;-00,1560;-09,1180;-00,006947;-00,350812;+00,021632;+031,90;+101,19
+00,001;+00,233;-00,194;-04,4380;-00,0230;-08,9080;+00,005132;-00,267938;+00,002929;+031,90;+101,19
00,000;+00,235;-00,196;-04,1570;-00,3100;-08,7870;+00,017674;-00,233324;+00,000598;+031,90;+101,18
+00,001;+00,231;-00,196;-04,6620;-00,1960;-08,9650;+00,026416;-00,187093;-00,000886;+031,90;+101,16
+00,001;+00,234;-00,197;-04,7990;-00,1030;-09,0170;+00,024766;-00,099627;-00,010922;+031,90;+101,19
00,000;+00,232;-00,196;-04,8410;-00,0090;-08,9570;+00,006364;+00,001769;-00,031424;+031,90;+101,18
