UncompMagX;UncompMagY;UncompMagZ;UncompAccX;UncompAccY;UncompAccZ;UncompGyroX;UncompGyroY;UncompGyroZ;Temperature;Pressure
-00,156;+00,102;-00,130;-03,8580;-00,1530;-08,9150;-00,004871;-00,043760;+00,018018;+031,90;+101,17
-00,156;+00,098;-00,129;-03,5400;-00,0650;-08,7520;-00,005270;-00,049862;+00,016907;+031,90;+101,17
-00,156;+00,098;-00,127;-03,7870;-00,1190;-08,8510;+00,003781;-00,063568;+00,016569;+031,90;+101,16
-00,156;+00,100;-00,126;-03,6880;-00,0480;-08,8440;+00,006709;-00,057939;+00,010395;+031,90;+101,17
-00,155;+00,101;-00,128;-03,6020;-00,1430;-08,7490;+00,016708;-00,068964;+00,010608;+031,90;+101,17
-00,156;+00,098;-00,126;-03,7420;-00,0760;-08,9240;+00,021488;-00,090411;+00,015025;+031,90;+101,16
-00,157;+00,100;-00,127;-03,6750;-00,1260;-08,7970;+00,032590;-00,084245;+00,009836;+031,90;+101,18
-00,156;+00,099;-00,127;-03,5870;-00,1280;-08,7600;+00,040784;-00,109104;+00,012837;+031,90;+101,17
-00,157;+00,100;-00,126;-03,7200;-00,0840;-08,7650;+00,042099;-00,119405;+00,014066;+031,90;+101,17
-00,155;+00,099;-00,129;-03,9060;+00,0250;-08,8670;+00,039610;-00,106520;+00,007845;+031,90;+101,17
-00,157;+00,102;-00,128;-03,8500;-00,0100;-08,8390;+00,027595;-00,077870;-00,001393;+031,90;+101,17
-00,156;+00,097;-00,126;-03,9090;-00,0300;-08,8230;+00,018004;-00,062531;-00,010199;+031,90;+101,17
-00,156;+00,100;-00,128;-03,9580;-00,1660;-08,8290;+00,014530;-00,036920;-00,016413;+031,90;+101,17
-00,156;+00,100;-00,127;-03,8820;-00,0500;-08,7390;+00,012681;+00,004413;-00,026333;+031,90;+101,17
-00,156;+00,099;-00,125;-03,7590;-00,0300;-08,8080;+00,010256;+00,007364;-00,041482;+031,90;+101,18
-00,155;+00,098;-00,125;-03,6550;-00,1190;-08,7300;+00,025097;+00,009650;-00,038657;+031,90;+101,18
-00,156;+00,098;-00,128;-03,7180;-00,2250;-08,6380;+00,064667;+00,010501;-00,033843;+031,90;+101,17
-00,156;+00,099;-00,128;-03,7990;-00,1930;-08,7390;+00,132365;+00,019614;-00,040216;+031,90;+101,17
-00,156;+00,102;-00,127;-03,7720;-00,1860;-08,8280;+00,199766;+00,018412;-00,039134;+031,90;+101,17
-00,156;+00,101;-00,127;-03,8310;-00,1910;-08,8990;+00,206822;-00,005475;-00,034956;+031,90;+101,17
-00,156;+00,100;-00,125;-03,8160;-00,2600;-08,7760;+00,195511;+00,015403;-00,023584;+031,90;+101,17
-00,156;+00,098;-00,124;-03,9080;-00,2830;-08,9090;+00,161784;+00,030052;-00,021298;+031,90;+101,16
-00,157;+00,102;-00,128;-03,9430;-00,3590;-08,9150;+00,137406;+00,047483;-00,012239;+031,90;+101,17
-00,156;+00,098;-00,128;-03,9170;-00,2190;-09,0070;+00,093453;+00,049963;-00,008138;+031,90;+101,17
-00,156;+00,099;-00,128;-03,7450;-00,2850;-08,8750;+00,052500;+00,040814;-00,011247;+031,90;+101,17
-00,157;+00,098;-00,128;-03,7120;-00,2610;-08,8170;+00,034217;+00,023694;-00,006987;+031,90;+101,18
-00,156;+00,100;-00,129;-03,7440;-00,2430;-08,9070;+00,023907;+00,016613;-00,006558;+031,90;+101,17
-00,156;+00,098;-00,126;-03,7180;-00,2580;-08,8370;+00,019239;+00,006039;-00,006708;+031,90;+101,17
-00,156;+00,100;-00,130;-03,7880;-00,3550;-08,8220;+00,022341;+00,004203;-00,000450;+031,90;+101,17
-00,156;+00,099;-00,129;-03,8800;-00,2850;-08,8870;+00,034264;+00,020820;+00,000610;+031,90;+101,17
-00,156;+00,102;-00,129;-03,7910;-00,3050;-08,8240;+00,040453;+00,028385;-00,003641;+031,90;+101,17
-00,156;+00,098;-00,129;-03,5520;-00,3080;-08,7790;+00,039490;-00,000534;-00,003006;+031,90;+101,17
-00,156;+00,100;-00,129;-03,5310;-00,1880;-08,8780;+00,041282;-00,053982;+00,000206;+031,90;+101,17
-00,156;+00,098;-00,130;-03,3430;-00,1530;-08,8900;+00,027594;-00,113025;+00,004980;+031,90;+101,17
-00,157;+00,099;-00,127;-03,2060;-00,2780;-08,7660;+00,012683;-00,222203;+00,017467;+031,90;+101,17
-00,155;+00,098;-00,126;-03,4470;-00,1330;-08,8620;-00,046824;-00,314463;+00,014705;+031,90;+101,17
-00,157;+00,100;-00,127;-03,7890;-00,1480;-08,9790;-00,104605;-00,418287;-00,006232;+031,90;+101,17
-00,155;+00,099;-00,126;-03,7010;+00,1620;-08,9070;-00,181732;-00,574639;-00,054167;+031,90;+101,18
-00,156;+00,100;-00,128;-02,9950;+00,2390;-08,5350;-00,329532;-00,827396;-00,076338;+031,90;+101,17
-00,158;+00,097;-00,121;-03,3740;+00,4310;-07,9560;-00,681261;-01,252103;-00,132945;+031,90;+101,17
-00,157;+00,100;-00,121;-03,2920;-00,1200;-09,0700;-00,933442;-01,683119;-00,195935;+031,90;+101,18
-00,158;+00,099;-00,115;-03,5800;-00,4180;-09,1440;-00,719195;-02,299912;-00,196621;+031,90;+101,18
-00,160;+00,097;-00,110;-03,0300;-00,2370;-10,1610;-00,698946;-03,155680;-00,209978;+031,90;+101,18
-00,159;+00,096;-00,100;-00,9970;-01,6030;-11,1040;-00,570113;-04,036327;-00,093946;+031,90;+101,17
-00,159;+00,098;-00,094;-01,4870;-04,4090;-16,8860;-01,123188;-05,256644;+00,304104;+031,90;+101,18
-00,159;+00,097;-00,081;-13,9820;+00,2310;-25,6520;-01,550418;-06,039384;+00,422149;+031,90;+101,18
-00,156;+00,099;-00,073;-05,5340;-05,4490;-32,6420;-03,072612;-04,612945;+01,062226;+031,90;+101,18
-00,153;+00,101;-00,059;-20,5620;+09,7820;-22,0370;-02,332103;-03,924800;+01,442989;+031,90;+101,17
-00,151;+00,104;-00,054;-33,3520;+10,9600;-37,7050;-01,586111;-00,970050;+01,160986;+031,90;+101,18
-00,150;+00,104;-00,051;-15,7810;+12,5130;-21,5160;-00,011219;-00,669888;+01,520191;+031,90;+101,17
-00,147;+00,106;-00,048;-09,9920;+07,5170;-04,8310;+00,532940;-00,947692;+02,148457;+031,90;+101,18
-00,142;+00,110;-00,048;-14,4950;+00,2800;-09,9830;+00,211273;-01,574184;+02,392301;+031,90;+101,18
-00,141;+00,116;-00,044;-18,2480;-04,0070;-18,4310;+00,060434;-01,206473;+02,107474;+031,90;+101,18
-00,137;+00,117;-00,043;-16,2160;-05,7000;-17,5190;-00,016936;-00,572784;+01,471557;+031,90;+101,17
-00,136;+00,121;-00,043;-13,1220;-05,3630;-12,4320;-00,178135;-00,224178;+00,887109;+031,90;+101,17
-00,134;+00,118;-00,041;-10,5180;-03,1060;-08,6250;-00,371960;-00,168530;+00,398439;+031,90;+101,17
-00,133;+00,120;-00,043;-08,8420;-01,4360;-07,0940;-00,529827;-00,132104;+00,107617;+031,90;+101,17
-00,135;+00,120;-00,039;-07,5110;+00,0090;-06,4340;-00,576786;-00,050931;-00,083894;+031,90;+101,18
-00,134;+00,120;-00,038;-05,9850;+00,7840;-05,3300;-00,531324;+00,080539;-00,211620;+031,90;+101,18
-00,133;+00,118;-00,038;-04,4750;+00,9700;-03,8730;-00,487148;+00,232768;-00,272731;+031,90;+101,18
-00,136;+00,118;-00,039;-03,1220;+01,4930;-01,8410;-00,417615;+00,375464;-00,322363;+031,90;+101,17
-00,135;+00,118;-00,039;-01,8110;+02,2140;-00,0570;-00,323162;+00,434231;-00,311474;+031,90;+101,18
-00,136;+00,118;-00,039;-01,5420;+02,6100;-00,2470;-00,182810;+00,476362;-00,236837;+031,90;+101,16
-00,136;+00,115;-00,038;-02,0710;+03,5120;-00,9460;+00,105323;+00,627949;-00,198253;+031,90;+101,17
-00,137;+00,116;-00,039;-01,4130;+03,3610;+00,9010;+00,360671;+00,791523;-00,104801;+031,90;+101,17
-00,137;+00,114;-00,042;+00,0830;+02,2430;+04,3220;+00,428666;+00,789252;+00,013915;+031,90;+101,17
-00,137;+00,116;-00,043;+00,9450;+00,9970;+06,4100;+00,401950;+00,610142;+00,062854;+031,90;+101,17
-00,137;+00,116;-00,042;+00,9840;-00,3950;+06,8270;+00,363955;+00,418155;+00,000055;+031,90;+101,18
-00,137;+00,117;-00,045;+00,8980;-01,6280;+06,5430;+00,331186;+00,294962;-00,180486;+031,90;+101,17
-00,138;+00,116;-00,045;+01,0410;-02,3120;+06,7280;+00,296812;+00,207202;-00,419424;+031,90;+101,17
-00,138;+00,118;-00,047;+01,5940;-02,3920;+07,9200;+00,298765;+00,097341;-00,669329;+031,90;+101,16
-00,140;+00,114;-00,048;+02,1250;-02,2160;+09,2540;+00,339566;-00,111289;-00,938860;+031,90;+101,17
-00,141;+00,114;-00,050;+02,5550;-02,0550;+10,6190;+00,335023;-00,394855;-01,190508;+031,90;+101,17
-00,142;+00,109;-00,044;+02,9020;-01,7560;+11,2720;+00,245362;-00,730594;-01,363073;+031,90;+101,17
-00,144;+00,110;-00,048;+02,9130;-00,8980;+10,7350;+00,183827;-01,080783;-01,481997;+031,90;+101,16
-00,145;+00,105;-00,043;+02,6140;+00,1780;+09,6980;+00,208163;-01,368079;-01,569772;+031,90;+101,16
-00,147;+00,105;-00,043;+02,5680;+01,4850;+07,3810;+00,368853;-01,630835;-01,564202;+031,90;+101,16
-00,146;+00,101;-00,040;+00,9110;+02,7930;+03,7680;+00,668985;-01,729625;-01,526069;+031,90;+101,18
-00,147;+00,100;-00,037;-00,4870;+02,9500;+01,6870;+00,853109;-01,482759;-01,422701;+031,90;+101,16
-00,148;+00,097;-00,036;-00,7470;+02,5720;+00,8730;+00,755061;-01,140976;-01,180749;+031,90;+101,17
-00,149;+00,098;-00,035;-01,0510;+02,2020;+00,5940;+00,453872;-00,780466;-00,891776;+031,90;+101,17
-00,148;+00,093;-00,034;-00,6940;+01,9460;+01,2590;+00,145602;-00,453779;-00,631480;+031,90;+101,17
-00,150;+00,095;-00,033;-00,7210;+02,5320;+00,8980;-00,006871;-00,264085;-00,431398;+031,90;+101,17
-00,149;+00,094;-00,030;-01,5290;+04,0960;+00,1410;+00,136731;-00,031654;-00,276922;+031,90;+101,16
-00,150;+00,094;-00,035;-01,9730;+05,4400;+00,5210;+00,437952;+00,190153;-00,031088;+031,90;+101,17
-00,151;+00,095;-00,033;-02,6980;+05,0940;+00,9580;+00,578594;+00,278885;+00,336751;+031,90;+101,17
-00,151;+00,096;-00,038;-03,0010;+03,7460;+00,3670;+00,578475;+00,267672;+00,685964;+031,90;+101,17
-00,148;+00,097;-00,037;-03,8760;+01,8100;-02,4520;+00,568517;+00,216480;+00,889538;+031,90;+101,17
-00,148;+00,101;-00,040;-05,5800;-00,0210;-06,6490;+00,685043;+00,289954;+00,855872;+031,90;+101,17
-00,148;+00,101;-00,039;-07,1740;-01,7340;-09,8030;+00,877589;+00,590719;+00,665941;+031,90;+101,17
-00,148;+00,104;-00,047;-08,2570;-02,9060;-11,1010;+00,949853;+00,937140;+00,400298;+031,90;+101,18
-00,148;+00,105;-00,043;-08,5850;-04,3780;-11,2090;+00,706149;+01,248437;+00,176171;+031,90;+101,18
-00,149;+00,106;-00,050;-08,3020;-05,6020;-11,7800;+00,235903;+01,465670;-00,003725;+031,90;+101,16
-00,149;+00,104;-00,052;-08,2770;-05,1190;-13,4970;-00,089041;+01,674631;-00,276401;+031,90;+101,18
-00,150;+00,105;-00,053;-10,5760;-04,8930;-16,8200;-00,103849;+01,907381;-00,644933;+031,90;+101,16
-00,152;+00,100;-00,059;-13,2670;-04,0320;-19,5950;+00,010985;+02,306241;-01,056547;+031,90;+101,17
-00,154;+00,099;-00,063;-14,2770;-01,8670;-19,1990;-00,038150;+02,753855;-01,220217;+031,90;+101,18
-00,157;+00,097;-00,066;-14,0100;+00,6850;-17,2270;-00,264747;+03,018193;-01,053654;+031,90;+101,17
-00,158;+00,099;-00,072;-13,0290;+02,4780;-16,2190;-00,356785;+03,078501;-00,734662;+031,90;+101,17
-00,160;+00,095;-00,078;-12,2950;+02,9170;-15,8470;-00,283993;+03,066134;-00,418998;+031,90;+101,16
-00,161;+00,097;-00,083;-10,8840;+02,7170;-12,8510;-00,071176;+02,999925;-00,097598;+031,90;+101,18
-00,161;+00,095;-00,089;-08,5120;+02,6180;-08,9520;+00,214226;+02,524965;+00,250609;+031,90;+101,17
-00,160;+00,097;-00,094;-07,8770;+02,7000;-06,2120;+00,768062;+01,913454;+00,540213;+031,90;+101,17
-00,160;+00,096;-00,098;-08,8820;+00,6310;-13,1660;+01,555787;+01,342649;+00,612322;+031,90;+101,17
-00,159;+00,101;-00,105;+37,4400;-23,8160;-12,4850;+00,852692;+05,464223;+01,102694;+031,90;+101,17
-00,158;+00,099;-00,112;-23,2390;-06,1250;-07,0980;-00,536915;+02,621972;+00,443930;+031,90;+101,17
-00,157;+00,102;-00,119;+03,0790;+02,6300;-15,7340;+00,144570;+02,878032;+00,484558;+031,90;+101,18
-00,155;+00,102;-00,123;+04,5620;+03,7870;-07,6090;+00,121329;+01,874772;+00,655621;+031,90;+101,17
-00,155;+00,104;-00,127;-02,4290;-01,1230;-07,8570;+00,537681;+00,642554;+00,288425;+031,90;+101,16
-00,155;+00,103;-00,125;-01,9610;+04,0370;-07,7370;+00,441512;+00,542180;-00,063906;+031,90;+101,18
-00,153;+00,105;-00,128;-07,6580;-00,7340;-09,5370;+00,210560;+00,778285;-00,238817;+031,90;+101,18
-00,153;+00,100;-00,129;-01,7900;+00,2070;-08,6190;+00,135851;+00,688891;-00,253222;+031,90;+101,17
-00,154;+00,101;-00,130;-00,3420;-00,7530;-08,2780;+00,161281;+00,106143;-00,127885;+031,90;+101,16
-00,153;+00,102;-00,130;-03,7000;-00,3370;-09,1160;+00,106831;-00,104943;-00,045124;+031,90;+101,18
-00,154;+00,102;-00,131;-04,3580;+00,2170;-09,0730;+00,101945;-00,072976;-00,070563;+031,90;+101,17
-00,154;+00,101;-00,129;-04,3020;-00,6400;-08,8300;+00,100090;+00,045960;-00,059688;+031,90;+101,18
-00,154;+00,101;-00,129;-03,7070;-00,7810;-08,7650;+00,063234;+00,097113;-00,039625;+031,90;+101,17
-00,153;+00,099;-00,130;-03,7610;-00,5370;-08,7770;+00,044751;+00,116522;-00,014161;+031,90;+101,18
-00,154;+00,101;-00,134;-03,4910;-00,2780;-08,8800;+00,022041;+00,108760;-00,002340;+031,90;+101,18
-00,153;+00,100;-00,132;-03,3840;-00,0140;-08,8510;-00,001432;+00,063606;-00,006660;+031,90;+101,17
-00,155;+00,103;-00,132;-03,5290;-00,1330;-08,8830;-00,017917;+00,029963;-00,012113;+031,90;+101,18
-00,153;+00,100;-00,129;-03,5930;-00,2690;-08,8810;-00,021198;+00,002267;-00,012861;+031,90;+101,17
-00,152;+00,103;-00,133;-03,6720;-00,4030;-08,8530;-00,021808;-00,000604;-00,000359;+031,90;+101,17
-00,153;+00,100;-00,131;-03,7410;-00,2380;-09,0050;-00,006743;-00,010761;+00,006940;+031,90;+101,17
-00,154;+00,101;-00,130;-03,8460;-00,1030;-09,0650;+00,024924;-00,007805;+00,005537;+031,90;+101,17
-00,154;+00,102;-00,130;-03,5940;-00,2890;-08,8530;+00,054486;-00,010139;+00,000861;+031,90;+101,18
-00,155;+00,102;-00,131;-03,6620;+00,1750;-08,9660;+00,059366;-00,031029;+00,003895;+031,90;+101,17
-00,153;+00,100;-00,129;-03,6800;-00,2350;-08,8890;+00,072177;-00,043940;-00,002646;+031,90;+101,18
-00,155;+00,101;-00,133;-03,8700;-00,1250;-08,9690;+00,084539;-00,028512;-00,009021;+031,90;+101,17
-00,154;+00,099;-00,129;-03,6600;-00,2530;-08,8790;+00,086606;-00,026975;-00,013655;+031,90;+101,17
-00,154;+00,101;-00,131;-03,7130;-00,1680;-08,9340;+00,080562;-00,027031;-00,014282;+031,90;+101,17
-00,153;+00,100;-00,131;-03,7220;-00,2580;-08,9090;+00,073022;-00,024383;-00,014577;+031,90;+101,18
-00,154;+00,102;-00,132;-03,6490;-00,2450;-08,9060;+00,077432;-00,028843;-00,013171;+031,90;+101,17
-00,154;+00,099;-00,130;-03,7020;-00,3210;-08,9220;+00,087015;-00,041101;-00,008599;+031,90;+101,16
-00,154;+00,103;-00,132;-03,6620;-00,2570;-08,8730;+00,090332;-00,043100;-00,006054;+031,90;+101,17
-00,154;+00,101;-00,130;-03,8640;-00,3250;-08,8840;+00,045077;-00,001967;+00,004303;+031,90;+101,17
-00,154;+00,102;-00,133;-03,7330;-00,2590;-08,9500;+00,044347;+00,003429;+00,000432;+031,90;+101,17
-00,154;+00,100;-00,131;-03,6770;-00,3080;-08,8710;+00,043802;+00,001148;-00,000137;+031,90;+101,17
-00,155;+00,101;-00,133;-03,7760;-00,2150;-08,9780;+00,047169;-00,011552;-00,006017;+031,90;+101,17
-00,154;+00,103;-00,129;-03,6550;-00,3040;-08,8240;+00,041888;-00,006603;-00,006275;+031,90;+101,17
-00,155;+00,102;-00,131;-03,6390;-00,2780;-08,8760;+00,047567;-00,020067;-00,003048;+031,90;+101,18
-00,155;+00,102;-00,130;-03,6980;-00,3370;-08,8180;+00,041925;-00,031080;-00,003216;+031,90;+101,17
-00,154;+00,099;-00,133;-03,7020;-00,3510;-08,8570;+00,046335;-00,035218;+00,000362;+031,90;+101,17
-00,153;+00,099;-00,132;-03,7630;-00,3460;-08,8850;+00,047276;-00,026660;+00,002186;+031,90;+101,17
-00,153;+00,102;-00,132;-03,6110;-00,3310;-08,7980;+00,047856;-00,022757;+00,000530;+031,90;+101,17
-00,153;+00,103;-00,131;-03,7810;-00,2830;-08,8470;+00,044784;-00,017041;+00,002770;+031,90;+101,18
-00,154;+00,104;-00,132;-03,7100;-00,1910;-08,9050;+00,045003;-00,013880;+00,000667;+031,90;+101,18
-00,153;+00,101;-00,131;-03,7450;-00,2690;-08,8550;+00,045927;-00,011782;-00,005665;+031,90;+101,17
-00,154;+00,104;-00,131;-03,7430;-00,2880;-08,8800;+00,049117;-00,012528;-00,005878;+031,90;+101,17
-00,154;+00,100;-00,131;-03,6790;-00,3000;-08,8560;+00,047852;-00,013361;-00,006650;+031,90;+101,16
-00,154;+00,103;-00,130;-03,8100;-00,2600;-08,9390;+00,048820;-00,019591;-00,013274;+031,90;+101,17
-00,154;+00,102;-00,130;-03,8060;-00,2370;-08,9440;+00,040582;-00,011985;-00,018821;+031,90;+101,16
-00,153;+00,102;-00,133;-03,8680;-00,2420;-08,8700;+00,025697;+00,006417;-00,023609;+031,90;+101,18
-00,153;+00,102;-00,131;-03,6830;-00,3320;-08,8580;+00,014444;+00,010149;-00,027391;+031,90;+101,17
-00,155;+00,103;-00,132;-03,7140;-00,3750;-08,8770;+00,011285;+00,005264;-00,024621;+031,90;+101,17
-00,155;+00,099;-00,133;-03,6930;-00,3700;-08,7800;+00,013331;-00,001204;-00,022185;+031,90;+101,16
-00,153;+00,102;-00,131;-03,6350;-00,3840;-08,7950;+00,016791;-00,013779;-00,017814;+031,90;+101,17
-00,155;+00,101;-00,131;-03,8010;-00,3510;-08,8940;+00,018849;-00,010141;-00,017070;+031,90;+101,17
-00,155;+00,101;-00,133;-03,8280;-00,3540;-08,8300;+00,011403;+00,008194;-00,014030;+031,90;+101,18
-00,153;+00,100;-00,131;-03,8150;-00,3290;-08,8060;+00,003522;+00,028304;-00,016811;+031,90;+101,18
-00,154;+00,100;-00,131;-03,7740;-00,3320;-08,8380;-00,008615;+00,049938;-00,020594;+031,90;+101,18
-00,154;+00,102;-00,133;-03,6590;-00,3440;-08,8190;-00,020149;+00,056826;-00,023055;+031,90;+101,17
-00,153;+00,104;-00,131;-03,5800;-00,2840;-08,8470;-00,027575;+00,033459;-00,025850;+031,90;+101,15
-00,152;+00,099;-00,132;-03,6910;-00,2960;-08,9120;-00,024266;+00,016008;-00,026262;+031,90;+101,17
-00,154;+00,103;-00,132;-03,6990;-00,3080;-08,9200;-00,022144;+00,005125;-00,027459;+031,90;+101,18
-00,154;+00,101;-00,130;-03,7960;-00,3340;-08,8550;-00,014831;+00,004009;-00,027534;+031,90;+101,17
-00,154;+00,103;-00,132;-03,7660;-00,3970;-08,8800;-00,013553;+00,015969;-00,022315;+031,90;+101,18
-00,154;+00,101;-00,128;-03,7490;-00,3510;-08,8710;-00,007862;+00,014770;-00,013865;+031,90;+101,16
-00,155;+00,101;-00,132;-03,7920;-00,3980;-08,8830;-00,008349;+00,027126;-00,009264;+031,90;+101,18
-00,154;+00,099;-00,133;-03,7960;-00,4270;-08,8460;-00,003533;+00,042450;-00,003846;+031,90;+101,17
-00,153;+00,103;-00,133;-03,6880;-00,4040;-08,8550;+00,000393;+00,037820;-00,001658;+031,90;+101,17
-00,154;+00,102;-00,130;-03,6860;-00,3620;-08,8510;+00,001594;+00,025350;+00,003256;+031,90;+101,18
-00,154;+00,102;-00,133;-03,6370;-00,3080;-08,9080;+00,003031;+00,012770;+00,001975;+031,90;+101,17
-00,154;+00,101;-00,130;-03,5790;-00,3710;-08,8520;+00,002852;-00,010738;+00,002117;+031,90;+101,17
-00,154;+00,103;-00,132;-03,5450;-00,3420;-08,8190;-00,000805;-00,035664;+00,010299;+031,90;+101,18
-00,155;+00,101;-00,133;-03,5120;-00,2820;-08,8710;-00,003477;-00,064116;+00,011573;+031,90;+101,18
-00,154;+00,102;-00,134;-03,1530;-00,3770;-08,6930;-00,013983;-00,130417;+00,021919;+031,90;+101,18
-00,154;+00,102;-00,130;-03,1480;-00,2950;-08,8010;-00,021586;-00,228039;+00,041188;+031,90;+101,17
-00,154;+00,101;-00,131;-03,1590;-00,2920;-08,8010;-00,035987;-00,342186;+00,056106;+031,90;+101,17
-00,153;+00,102;-00,129;-03,6160;-00,2500;-08,8790;-00,060816;-00,466291;+00,051866;+031,90;+101,18
-00,153;+00,102;-00,131;-03,6330;+00,0720;-08,7700;-00,150442;-00,609416;-00,032340;+031,90;+101,17
-00,156;+00,102;-00,127;-02,8880;+00,5500;-08,3030;-00,326634;-00,902029;-00,096863;+031,90;+101,17
-00,156;+00,102;-00,124;-03,8690;+00,4400;-08,3740;-00,651963;-01,267478;-00,188251;+031,90;+101,17
-00,156;+00,100;-00,122;-03,5510;-00,5650;-09,3210;-00,800492;-01,681228;-00,220229;+031,90;+101,17
-00,156;+00,101;-00,118;-03,4610;-00,2980;-09,3470;-00,607471;-02,284505;-00,214646;+031,90;+101,18
-00,156;+00,101;-00,110;-02,6120;-00,4000;-09,8240;-00,543027;-02,974556;-00,212683;+031,90;+101,16
-00,158;+00,101;-00,107;-01,5270;-03,4860;-13,0150;-00,742289;-03,951188;-00,026256;+031,90;+101,17
-00,157;+00,100;-00,096;-01,3570;-03,6350;-15,0040;-01,128487;-05,115351;+00,364632;+031,90;+101,17
-00,158;+00,104;-00,087;-03,8450;-05,4680;-29,9920;-01,282595;-05,980128;+00,563827;+031,90;+101,18
-00,155;+00,103;-00,069;-19,2900;+03,9400;-20,8900;-02,232480;-06,326406;+00,916270;+031,90;+101,16
-00,152;+00,104;-00,062;-16,3740;+03,2070;-27,8080;-02,259540;-03,931562;+01,199840;+031,90;+101,17
-00,150;+00,104;-00,051;-43,3180;+06,5750;-39,5290;-01,318683;-01,694464;+01,090495;+031,90;+101,18
-00,149;+00,107;-00,050;-15,5930;+07,8410;-26,6770;-00,071155;-00,489469;+01,256416;+031,90;+101,18
-00,146;+00,106;-00,051;-11,7690;+04,9570;-08,7860;+00,313750;-00,218695;+01,675018;+031,90;+101,17
-00,144;+00,112;-00,050;-12,4380;+02,9570;-08,2840;+00,099427;-00,745533;+02,051093;+031,90;+101,17
-00,140;+00,115;-00,047;-15,4270;+00,3520;-15,1130;-00,079334;-00,639204;+02,150138;+031,90;+101,17
-00,138;+00,120;-00,047;-15,4150;-00,4250;-16,8000;-00,014902;-00,086863;+01,971967;+031,90;+101,17
-00,134;+00,123;-00,047;-11,6790;-01,5430;-11,3680;+00,087385;+00,318134;+01,705997;+031,90;+101,17
-00,133;+00,124;-00,048;-08,0100;-02,3260;-05,2460;-00,062750;+00,294136;+01,463829;+031,90;+101,18
-00,132;+00,124;-00,048;-05,7950;-02,6400;-02,4740;-00,278051;+00,108815;+01,192827;+031,90;+101,18
-00,131;+00,130;-00,049;-04,9380;-02,1780;-03,0370;-00,292788;-00,000485;+00,847134;+031,90;+101,17
-00,128;+00,127;-00,046;-04,7250;-01,7750;-04,3300;-00,097454;+00,114288;+00,456215;+031,90;+101,17
-00,129;+00,129;-00,046;-03,8310;-01,8930;-03,6410;+00,109368;+00,382763;+00,062911;+031,90;+101,17
-00,129;+00,127;-00,047;-01,8300;-01,9130;-00,5250;+00,134607;+00,605342;-00,261152;+031,90;+101,17
-00,129;+00,128;-00,048;-00,3490;-00,8430;+02,1480;+00,105039;+00,655759;-00,487232;+031,90;+101,18
-00,131;+00,127;-00,050;+00,2480;+00,5670;+02,8970;+00,141949;+00,635574;-00,638505;+031,90;+101,17
-00,132;+00,125;-00,052;+00,4060;+01,6260;+03,3560;+00,312381;+00,664790;-00,740313;+031,90;+101,17
-00,132;+00,124;-00,054;+00,7590;+01,7760;+04,4510;+00,448414;+00,645969;-00,772951;+031,90;+101,16
-00,134;+00,126;-00,054;+01,0600;+01,6710;+05,7040;+00,490906;+00,572593;-00,793904;+031,90;+101,17
-00,135;+00,122;-00,054;+01,0350;+02,0320;+06,3540;+00,430783;+00,421969;-00,766911;+031,90;+101,17
-00,136;+00,123;-00,058;+00,6810;+02,5660;+06,0000;+00,364641;+00,278684;-00,701142;+031,90;+101,16
-00,137;+00,121;-00,058;+00,2080;+02,4260;+05,9030;+00,354075;+00,173910;-00,647704;+031,90;+101,17
-00,139;+00,123;-00,058;+00,2830;+01,7930;+06,7890;+00,350058;+00,064282;-00,653233;+031,90;+101,17
-00,137;+00,119;-00,058;+00,4670;+00,9030;+07,5660;+00,306612;-00,118509;-00,715247;+031,90;+101,17
-00,139;+00,119;-00,059;+00,3940;+00,5210;+07,7370;+00,244645;-00,321438;-00,822495;+031,90;+101,17
-00,140;+00,116;-00,057;+00,4940;+00,4470;+08,0700;+00,115387;-00,467789;-00,929068;+031,90;+101,17
-00,142;+00,115;-00,055;+00,7320;+00,7940;+07,5450;-00,038288;-00,653414;-00,961527;+031,90;+101,16
-00,142;+00,115;-00,057;+00,2180;+01,0560;+05,8660;-00,124664;-00,800315;-00,952553;+031,90;+101,16
-00,142;+00,113;-00,055;-00,3220;+01,5080;+04,0030;-00,111515;-00,838038;-00,943046;+031,90;+101,17
-00,145;+00,112;-00,052;-00,2920;+02,3520;+03,2220;+00,016154;-00,780781;-00,910991;+031,90;+101,17
-00,144;+00,110;-00,053;-00,3650;+02,9060;+02,2460;+00,161657;-00,717528;-00,790158;+031,90;+101,17
-00,146;+00,110;-00,052;-01,1390;+03,1330;+01,3940;+00,249916;-00,550539;-00,633132;+031,90;+101,17
-00,146;+00,109;-00,054;-01,1980;+03,4550;+01,1290;+00,271431;-00,339058;-00,419250;+031,90;+101,17
-00,147;+00,106;-00,051;-01,5510;+03,5100;+00,7950;+00,222590;-00,169148;-00,137480;+031,90;+101,16
-00,146;+00,109;-00,051;-01,7260;+03,1690;+00,1380;+00,194629;-00,016642;+00,122151;+031,90;+101,18
-00,146;+00,107;-00,050;-02,4210;+02,1140;-00,7770;+00,180940;+00,126445;+00,316095;+031,90;+101,17
-00,145;+00,111;-00,054;-02,9200;+01,2210;-01,5490;+00,196752;+00,304777;+00,402100;+031,90;+101,18
-00,144;+00,109;-00,052;-03,3260;+01,0340;-02,3870;+00,298861;+00,420785;+00,423026;+031,90;+101,17
-00,145;+00,112;-00,055;-04,3760;+00,2900;-04,2370;+00,415538;+00,504699;+00,412225;+031,90;+101,17
-00,144;+00,111;-00,055;-05,6560;-01,0290;-06,3890;+00,456337;+00,638406;+00,340127;+031,90;+101,18
-00,144;+00,114;-00,059;-06,5950;-01,2540;-07,7590;+00,437480;+00,821638;+00,219248;+031,90;+101,17
-00,144;+00,112;-00,058;-07,5910;-00,4770;-08,9020;+00,452767;+00,945113;+00,108074;+031,90;+101,16
-00,145;+00,114;-00,063;-08,6810;-00,2010;-09,8920;+00,477178;+01,046474;+00,038941;+031,90;+101,17
-00,147;+00,114;-00,063;-09,1950;-00,4860;-10,1580;+00,478980;+01,104490;-00,001331;+031,90;+101,17
-00,147;+00,115;-00,065;-09,7150;-01,2930;-10,7240;+00,423820;+01,075803;-00,077086;+031,90;+101,18
-00,146;+00,114;-00,069;-10,5650;-02,1060;-12,0690;+00,340489;+01,120964;-00,186036;+031,90;+101,18
-00,147;+00,114;-00,072;-11,0130;-01,5230;-12,7090;+00,333562;+01,226518;-00,315950;+031,90;+101,17
-00,148;+00,113;-00,071;-10,7140;-00,5240;-12,5710;+00,435023;+01,268763;-00,367960;+031,90;+101,18
-00,150;+00,113;-00,079;-10,2830;+00,9740;-12,5770;+00,579243;+01,266678;-00,288123;+031,90;+101,17
-00,150;+00,111;-00,079;-09,5790;+02,0100;-12,7590;+00,806640;+01,263809;-00,080913;+031,90;+101,16
-00,149;+00,112;-00,085;-08,3180;+02,5580;-12,5730;+01,020740;+01,258080;+00,294668;+031,90;+101,18
-00,149;+00,113;-00,089;-79,7850;-03,4380;-92,4110;-00,200423;+08,803460;-00,172239;+031,90;+101,17
-00,151;+00,115;-00,104;-06,9470;-15,2120;-49,1460;+01,185985;+05,737860;+00,367666;+031,90;+101,18
-00,149;+00,114;-00,109;-09,9710;-06,5610;-09,3690;-00,051998;+04,138266;-00,201033;+031,90;+101,17
-00,148;+00,113;-00,119;+02,1340;+00,4460;-10,9800;+00,121767;+03,432655;+00,118361;+031,90;+101,17
-00,148;+00,113;-00,123;+05,1320;-00,7680;-06,7340;+00,657992;+02,576895;+00,482439;+031,90;+101,18
-00,145;+00,114;-00,127;-03,4740;+04,9110;-10,4420;+00,858602;+01,412824;+00,330847;+031,90;+101,17
-00,144;+00,116;-00,130;+01,0620;+01,1160;-06,3320;+00,302749;+00,991437;-00,001717;+031,90;+101,14
-00,145;+00,114;-00,133;-06,8080;-00,9990;-09,7100;+00,108156;+01,098712;-00,138224;+031,90;+101,18
-00,144;+00,113;-00,135;-00,1020;-00,0940;-08,5710;+00,006365;+00,586454;-00,151309;+031,90;+101,17
-00,144;+00,113;-00,135;-00,7550;+00,1900;-08,2310;+00,046319;-00,115627;-00,076962;+031,90;+101,17
-00,145;+00,112;-00,137;-04,3560;+00,0550;-08,9760;+00,057752;-00,129606;-00,078306;+031,90;+101,18
-00,145;+00,113;-00,137;-03,9420;-00,4290;-08,5890;+00,032914;+00,008828;-00,110326;+031,90;+101,18
-00,145;+00,114;-00,133;-03,4340;-00,7750;-08,5480;+00,011703;+00,015294;-00,064838;+031,90;+101,17
-00,145;+00,114;-00,137;-03,6750;-00,6710;-08,6900;-00,028972;+00,016556;-00,017094;+031,90;+101,17
-00,144;+00,113;-00,134;-03,8760;-00,3970;-08,8050;-00,048517;+00,090264;+00,001711;+031,90;+101,17
-00,145;+00,116;-00,137;-03,7690;-00,3360;-08,9420;-00,028243;+00,092931;+00,016508;+031,90;+101,16
-00,145;+00,112;-00,136;-03,5290;-00,1020;-08,9800;-00,021466;+00,097647;+00,017552;+031,90;+101,18
-00,145;+00,115;-00,137;-03,4710;+00,0160;-09,0250;-00,027839;+00,045578;+00,012403;+031,90;+101,17
-00,145;+00,113;-00,136;-03,7460;+00,0580;-09,1490;-00,045796;-00,003758;-00,010136;+031,90;+101,18
-00,145;+00,115;-00,138;-03,7350;-00,1070;-09,2140;-00,056065;-00,019914;-00,022981;+031,90;+101,17
-00,145;+00,114;-00,134;-03,7260;-00,2250;-08,9510;-00,064014;-00,016800;-00,020751;+031,90;+101,17
-00,146;+00,114;-00,135;-03,6720;-00,2480;-08,9540;-00,075225;-00,032452;-00,016995;+031,90;+101,17
-00,146;+00,112;-00,136;-03,5170;-00,3430;-08,7780;-00,072865;-00,016116;-00,005309;+031,90;+101,17
-00,144;+00,115;-00,135;-03,7230;-00,1100;-08,9910;-00,050773;-00,005480;-00,007063;+031,90;+101,17
-00,146;+00,114;-00,134;-03,6720;-00,3700;-08,7140;+00,002847;+00,013186;+00,011813;+031,90;+101,17
-00,144;+00,115;-00,133;-03,4490;+00,0290;-08,7350;-00,024143;-00,016057;-00,002078;+031,90;+101,18
-00,144;+00,112;-00,133;-03,6400;-00,1290;-08,9030;-00,011242;-00,028061;-00,002007;+031,90;+101,17
-00,145;+00,112;-00,135;-03,5620;-00,0470;-08,8290;-00,006185;-00,035151;-00,011872;+031,90;+101,17
-00,145;+00,114;-00,132;-03,4360;-00,2310;-08,7580;+00,007261;-00,054010;-00,013513;+031,90;+101,17
-00,145;+00,113;-00,134;-03,6780;-00,2050;-08,8120;+00,017290;-00,056843;-00,006641;+031,90;+101,17
-00,145;+00,113;-00,134;-03,6090;-00,0630;-08,8430;+00,018565;-00,042773;-00,010704;+031,90;+101,18
-00,145;+00,113;-00,134;-03,7580;-00,2880;-08,8050;+00,020207;-00,031420;-00,009761;+031,90;+101,17
-00,145;+00,114;-00,132;-03,6810;-00,0220;-08,9000;+00,031637;-00,025130;-00,013597;+031,90;+101,18
-00,145;+00,115;-00,134;-03,6060;-00,1210;-08,8790;+00,048984;-00,024489;-00,007092;+031,90;+101,18
-00,145;+00,112;-00,132;-03,7430;-00,1150;-08,9170;+00,050723;-00,023384;-00,011287;+031,90;+101,17
-00,145;+00,115;-00,134;-03,7440;-00,2100;-08,9020;+00,044827;-00,019117;-00,011678;+031,90;+101,17
-00,145;+00,111;-00,133;-03,6580;-00,1530;-08,8650;+00,042905;-00,016797;-00,011197;+031,90;+101,18
-00,144;+00,115;-00,136;-03,6190;-00,2200;-08,8390;+00,045822;-00,018647;-00,005804;+031,90;+101,17
-00,144;+00,114;-00,133;-03,5510;-00,2120;-08,7910;+00,059320;-00,029369;-00,000976;+031,90;+101,17
-00,146;+00,116;-00,135;-03,5690;-00,2540;-08,8060;+00,071765;-00,039779;+00,005427;+031,90;+101,17
-00,146;+00,114;-00,133;-03,6050;-00,2490;-08,8410;+00,094899;-00,042799;+00,015382;+031,90;+101,18
-00,144;+00,112;-00,134;-03,7650;-00,1560;-08,9130;+00,103274;-00,037183;+00,017200;+031,90;+101,17
-00,145;+00,112;-00,132;-03,7320;-00,2240;-08,8450;+00,104677;-00,023749;+00,016054;+031,90;+101,18
-00,144;+00,117;-00,135;-03,6880;-00,1550;-08,8950;+00,097061;-00,022167;+00,015182;+031,90;+101,16
-00,145;+00,112;-00,136;-03,7490;-00,1320;-08,9340;+00,081729;-00,024111;+00,007633;+031,90;+101,18
-00,146;+00,115;-00,135;-03,7850;-00,1330;-08,9410;+00,064568;-00,021254;-00,002521;+031,90;+101,18
-00,145;+00,115;-00,133;-03,7090;-00,1200;-08,9250;+00,046464;-00,014983;-00,007636;+031,90;+101,17
-00,145;+00,116;-00,136;-03,7630;-00,2300;-08,9450;+00,023502;-00,022174;-00,015148;+031,90;+101,17
-00,146;+00,115;-00,135;-03,7840;-00,1950;-08,9630;+00,008403;-00,020593;-00,015698;+031,90;+101,17
-00,145;+00,113;-00,136;-03,6980;-00,2120;-08,8620;-00,002546;-00,022800;-00,019993;+031,90;+101,17
-00,144;+00,112;-00,133;-03,7050;-00,2830;-08,8660;-00,008826;-00,031299;-00,017646;+031,90;+101,18
-00,146;+00,115;-00,133;-03,7560;-00,2500;-08,9130;-00,010065;-00,026672;-00,019058;+031,90;+101,18
-00,144;+00,113;-00,132;-03,7270;-00,2560;-08,8820;-00,009240;-00,012733;-00,016592;+031,90;+101,18
-00,144;+00,113;-00,133;-03,6270;-00,2180;-08,8020;-00,004998;-00,022447;-00,018391;+031,90;+101,17
-00,145;+00,111;-00,131;-03,6760;-00,2630;-08,8340;+00,002453;-00,023605;-00,014978;+031,90;+101,17
-00,145;+00,116;-00,133;-03,7420;-00,2510;-08,8260;+00,010620;-00,017760;-00,009543;+031,90;+101,17
-00,144;+00,114;-00,132;-03,8500;-00,2340;-08,9070;+00,020471;-00,006389;-00,010624;+031,90;+101,18
-00,144;+00,115;-00,136;-03,8020;-00,2490;-08,9580;+00,022841;+00,002105;-00,009308;+031,90;+101,16
-00,145;+00,113;-00,132;-03,7360;-00,3200;-08,8430;+00,023246;+00,008642;-00,008568;+031,90;+101,17
-00,145;+00,115;-00,137;-03,6680;-00,2800;-08,8140;+00,038457;+00,013478;-00,004932;+031,90;+101,18
-00,144;+00,114;-00,134;-03,6850;-00,2060;-08,8170;+00,044606;+00,008104;-00,004995;+031,90;+101,18
-00,145;+00,115;-00,137;-03,6610;-00,1790;-08,8130;+00,044102;+00,006117;-00,007011;+031,90;+101,18
-00,145;+00,112;-00,133;-03,7030;-00,2350;-08,8270;+00,042169;+00,000788;-00,008562;+031,90;+101,18
-00,146;+00,114;-00,133;-03,8270;-00,2800;-08,8580;+00,047705;+00,018541;-00,008178;+031,90;+101,18
-00,145;+00,112;-00,134;-03,7720;-00,3440;-08,8740;+00,054173;+00,038275;-00,009252;+031,90;+101,16
-00,145;+00,112;-00,135;-03,6700;-00,3520;-08,8340;+00,057944;+00,039825;-00,004178;+031,90;+101,17
-00,145;+00,112;-00,133;-03,5380;-00,3930;-08,7860;+00,071372;+00,016393;+00,006168;+031,90;+101,17
-00,145;+00,114;-00,135;-03,5680;-00,2840;-08,8950;+00,082982;-00,010221;+00,009248;+031,90;+101,17
-00,145;+00,113;-00,134;-03,3740;-00,2640;-08,7880;+00,080744;-00,052030;+00,021317;+031,90;+101,18
-00,146;+00,115;-00,137;-03,1400;-00,2830;-08,7940;+00,073890;-00,132641;+00,031319;+031,90;+101,17
-00,145;+00,112;-00,136;-03,2420;-00,2350;-08,8550;+00,058422;-00,247628;+00,044271;+031,90;+101,17
-00,144;+00,117;-00,136;-03,4000;-00,1850;-08,9080;-00,051084;-00,378876;+00,031385;+031,90;+101,18
-00,145;+00,111;-00,132;-03,5590;-00,3200;-08,8660;-00,111474;-00,514285;+00,014608;+031,90;+101,17
-00,146;+00,115;-00,131;-03,6550;-00,0140;-08,8920;-00,238128;-00,766511;-00,026637;+031,90;+101,17
-00,146;+00,114;-00,131;-02,9640;+00,7480;-08,2730;-00,439419;-01,157652;-00,043995;+031,90;+101,18
-00,146;+00,115;-00,127;-03,2450;+00,2370;-07,9160;-00,864214;-01,747367;-00,110845;+031,90;+101,18
-00,147;+00,114;-00,121;-03,0150;-00,7690;-09,5480;-00,962374;-02,482857;-00,078480;+031,90;+101,18
-00,147;+00,114;-00,119;-03,4860;-01,0610;-11,1310;-01,092078;-03,245983;-00,057922;+031,90;+101,17
-00,148;+00,114;-00,106;-01,9580;-01,8930;-12,3410;-01,424712;-03,985935;+00,016346;+031,90;+101,17
-00,149;+00,116;-00,103;+00,0060;-04,3610;-16,1000;-01,849696;-04,726470;+00,330054;+031,90;+101,18
-00,147;+00,115;-00,087;-05,4970;-06,3330;-25,6530;-03,497212;-05,288411;+00,674493;+031,90;+101,17
-00,146;+00,117;-00,075;-20,6580;+09,5990;-21,8280;-03,795325;-05,815329;+00,762874;+031,90;+101,17
-00,142;+00,116;-00,060;-10,5550;-03,7740;-30,7790;-03,180618;-04,071602;+01,804158;+031,90;+101,18
-00,139;+00,120;-00,054;-47,0520;+20,1730;-42,3520;-01,869653;-02,343087;+01,328739;+031,90;+101,17
-00,136;+00,120;-00,049;-16,5680;+12,1000;-29,7940;-00,047888;-00,531611;+01,304377;+031,90;+101,18
-00,134;+00,124;-00,050;-12,2110;+07,1650;-07,9080;+00,652562;-00,237338;+01,917040;+031,90;+101,16
-00,131;+00,126;-00,045;-10,7850;+01,9800;-03,2690;+00,374456;-01,048355;+02,263237;+031,90;+101,18
-00,129;+00,130;-00,049;-15,8400;-02,8960;-12,7660;-00,090931;-01,142693;+02,172814;+031,90;+101,18
-00,124;+00,131;-00,044;-16,5380;-05,0050;-16,8110;-00,248265;-00,486258;+01,655416;+031,90;+101,17
-00,124;+00,136;-00,046;-12,1950;-05,6930;-12,0700;-00,220130;+00,068959;+00,952093;+031,90;+101,18
-00,122;+00,136;-00,042;-08,7360;-04,5900;-06,2250;-00,166227;+00,190337;+00,291386;+031,90;+101,18
-00,121;+00,135;-00,045;-07,3150;-02,7140;-04,6360;-00,043576;+00,157622;-00,231036;+031,90;+101,18
-00,121;+00,134;-00,044;-06,2680;-00,7460;-03,9000;+00,050276;+00,253414;-00,599202;+031,90;+101,17
-00,122;+00,132;-00,048;-04,6370;+01,0330;-02,3860;+00,035757;+00,336784;-00,709183;+031,90;+101,17
-00,124;+00,133;-00,045;-03,1180;+02,7220;-00,9830;-00,049159;+00,383049;-00,633612;+031,90;+101,17
-00,125;+00,132;-00,049;-01,6700;+03,8280;+00,2860;-00,089084;+00,393026;-00,460620;+031,90;+101,16
-00,126;+00,130;-00,045;-00,3150;+03,7870;+02,0010;-00,103118;+00,385461;-00,257118;+031,90;+101,17
-00,126;+00,131;-00,047;+00,9340;+03,1590;+03,4180;-00,085252;+00,312203;-00,104123;+031,90;+101,18
-00,126;+00,130;-00,046;+01,0990;+02,2510;+03,3770;-00,007356;+00,245296;-00,041757;+031,90;+101,17
-00,127;+00,132;-00,046;+00,8590;+01,5260;+03,1890;+00,094448;+00,258991;-00,081742;+031,90;+101,17
-00,125;+00,129;-00,046;+01,0690;+01,0060;+03,9160;+00,170140;+00,298882;-00,165077;+031,90;+101,17
-00,127;+00,131;-00,049;+01,3180;+00,7170;+04,9280;+00,205467;+00,289495;-00,257213;+031,90;+101,17
-00,127;+00,128;-00,047;+01,3240;+00,7220;+05,7080;+00,209851;+00,230657;-00,338698;+031,90;+101,18
-00,128;+00,129;-00,050;+01,2880;+00,4110;+05,9230;+00,227024;+00,158946;-00,421492;+031,90;+101,17
-00,128;+00,127;-00,046;+01,2450;-00,0420;+06,1700;+00,261405;+00,085081;-00,534226;+031,90;+101,17
-00,129;+00,128;-00,050;+01,4400;-00,5310;+06,6810;+00,292651;+00,004929;-00,691640;+031,90;+101,17
-00,131;+00,124;-00,050;+01,5870;-00,4400;+07,0390;+00,299925;-00,091300;-00,869747;+031,90;+101,17
-00,131;+00,126;-00,051;+01,5960;+00,0760;+07,1310;+00,257254;-00,209618;-00,992857;+031,90;+101,17
-00,133;+00,122;-00,049;+01,4080;+00,5520;+06,6330;+00,160568;-00,306712;-01,033721;+031,90;+101,17
-00,134;+00,124;-00,049;+01,4530;+00,8540;+05,7580;+00,068297;-00,381745;-01,017866;+031,90;+101,17
-00,134;+00,120;-00,049;+01,0300;+01,5150;+04,2660;+00,044108;-00,395461;-00,982270;+031,90;+101,16
-00,135;+00,120;-00,049;+00,6820;+02,3930;+02,5620;+00,124815;-00,309955;-00,911782;+031,90;+101,17
-00,137;+00,115;-00,049;+00,2160;+03,0560;+01,2620;+00,218594;-00,144771;-00,758445;+031,90;+101,17
-00,138;+00,118;-00,051;-00,0160;+03,1910;+01,0720;+00,214962;+00,083812;-00,521648;+031,90;+101,18
-00,138;+00,116;-00,048;+00,0220;+03,3540;+01,2550;+00,193099;+00,242224;-00,246628;+031,90;+101,17
-00,139;+00,117;-00,051;-00,7940;+03,0410;+01,1860;+00,246190;+00,359135;-00,010225;+031,90;+101,18
-00,137;+00,116;-00,051;-01,4770;+02,2520;+01,4690;+00,371594;+00,437455;+00,123965;+031,90;+101,17
-00,139;+00,118;-00,053;-02,5000;+01,3530;+01,1240;+00,515374;+00,432091;+00,172729;+031,90;+101,17
-00,139;+00,118;-00,053;-03,6210;+00,7910;+00,1030;+00,646328;+00,435269;+00,174538;+031,90;+101,17
-00,140;+00,121;-00,059;-04,7770;+00,3800;-02,1050;+00,745407;+00,447017;+00,161416;+031,90;+101,16
-00,139;+00,119;-00,059;-05,8080;-00,3970;-05,1630;+00,755801;+00,560847;+00,136131;+031,90;+101,17
-00,139;+00,123;-00,061;-06,5060;-01,5440;-06,9640;+00,676918;+00,765450;+00,072402;+031,90;+101,18
-00,139;+00,120;-00,062;-06,1070;-01,8670;-07,3330;+00,622852;+00,903720;-00,090104;+031,90;+101,17
-00,140;+00,119;-00,064;-06,0710;-02,5920;-08,4420;+00,631801;+00,949409;-00,326414;+031,90;+101,18
-00,141;+00,120;-00,064;-07,1410;-04,3790;-10,4740;+00,623445;+01,041254;-00,693680;+031,90;+101,17
-00,143;+00,121;-00,071;-08,2610;-06,2250;-12,0980;+00,522311;+01,239890;-01,181232;+031,90;+101,17
-00,143;+00,116;-00,072;-09,7340;-06,5800;-12,6990;+00,307293;+01,494062;-01,684208;+031,90;+101,18
-00,147;+00,114;-00,078;-10,1970;-03,8120;-12,0180;+00,147226;+01,625031;-02,032163;+031,90;+101,18
-00,150;+00,109;-00,077;-11,4580;-00,4860;-12,9510;+00,062223;+01,634180;-02,075648;+031,90;+101,17
-00,153;+00,109;-00,083;-12,7790;+02,1790;-15,1520;+00,062644;+01,706695;-01,834127;+031,90;+101,17
-00,155;+00,104;-00,085;-11,8250;+04,4750;-14,9710;+00,187309;+01,756645;-01,402380;+031,90;+101,17
-00,156;+00,102;-00,087;-10,9860;+05,8970;-14,9720;+00,435924;+01,616661;-00,855592;+031,90;+101,18
-00,158;+00,100;-00,089;-11,9730;+04,2730;-17,2300;+00,647667;+01,512610;-00,323766;+031,90;+101,17
-00,158;+00,103;-00,095;-11,9700;+01,4180;-15,7090;+00,818666;+01,551870;+00,032587;+031,90;+101,18
-00,158;+00,103;-00,098;-99,4300;-15,0960;-105,2440;-02,577604;+08,007582;+01,961309;+031,90;+101,17
-00,156;+00,106;-00,108;+14,5810;+01,7030;-02,3400;+00,661504;+02,063906;+00,235884;+031,90;+101,17
-00,154;+00,103;-00,116;-01,8430;-10,4400;-17,1470;-00,665115;+03,966685;+00,487599;+031,90;+101,17
-00,153;+00,106;-00,122;+01,1610;+03,1450;-09,2970;+00,345455;+02,164209;+00,624457;+031,90;+101,17
-00,152;+00,106;-00,124;+02,0070;+00,9980;-08,3030;+00,577213;+01,023206;+00,505099;+031,90;+101,17
-00,151;+00,107;-00,126;-04,7520;+01,9430;-08,6490;+00,517060;+00,913861;+00,304518;+031,90;+101,17
-00,151;+00,107;-00,127;-08,4180;+01,0720;-11,9630;+00,271171;+00,630203;-00,110785;+031,90;+101,18
-00,151;+00,107;-00,131;+00,0030;+02,7710;-08,9420;+00,243160;+00,686065;-00,260042;+031,90;+101,17
-00,150;+00,105;-00,130;-00,6750;-01,3280;-08,2240;+00,097757;+00,144524;-00,136570;+031,90;+101,17
-00,151;+00,107;-00,133;-03,4310;+00,5830;-09,1020;+00,036120;-00,060612;-00,089596;+031,90;+101,17
-00,152;+00,108;-00,128;-04,3190;-00,1570;-09,0680;+00,042751;-00,056829;-00,100419;+031,90;+101,17
-00,152;+00,105;-00,131;-04,0940;-00,6440;-08,8820;+00,048674;+00,037966;-00,089408;+031,90;+101,17
-00,151;+00,107;-00,130;-03,8990;-00,6810;-08,9300;+00,033874;+00,050742;-00,054586;+031,90;+101,17
-00,151;+00,108;-00,131;-03,8880;-00,4940;-09,0540;+00,029070;+00,058392;-00,024962;+031,90;+101,18
-00,152;+00,106;-00,129;-03,9490;-00,2980;-09,0370;+00,034031;+00,080039;-00,008803;+031,90;+101,17
-00,151;+00,109;-00,130;-03,5700;-00,0740;-09,0250;+00,033657;+00,069911;-00,007209;+031,90;+101,17
-00,151;+00,106;-00,130;-03,5530;+00,0140;-09,0050;+00,029368;+00,039302;-00,013592;+031,90;+101,18
-00,152;+00,107;-00,132;-03,6230;+00,0020;-08,9420;+00,033525;+00,012153;-00,026069;+031,90;+101,16
-00,152;+00,103;-00,130;-03,7440;-00,0780;-09,1060;+00,041840;-00,007619;-00,034456;+031,90;+101,18
-00,152;+00,109;-00,133;-03,8560;-00,0770;-09,1840;+00,058968;-00,015579;-00,039419;+031,90;+101,18
-00,151;+00,106;-00,131;-03,6730;-00,1890;-08,9550;+00,075448;-00,018769;-00,029609;+031,90;+101,18
-00,151;+00,107;-00,131;-03,5140;-00,2270;-08,7960;+00,083553;-00,029382;-00,018700;+031,90;+101,17
-00,151;+00,104;-00,130;-03,6690;-00,1220;-08,9210;+00,086151;-00,025347;-00,012464;+031,90;+101,18
-00,150;+00,104;-00,131;-03,6260;-00,2060;-08,8010;+00,088066;-00,017237;-00,011643;+031,90;+101,17
-00,153;+00,105;-00,130;-03,5220;-00,2110;-08,8310;+00,083862;-00,008201;-00,005102;+031,90;+101,17
-00,151;+00,106;-00,132;-03,7080;-00,0640;-09,1910;+00,129391;-00,037886;-00,009525;+031,90;+101,18
-00,151;+00,103;-00,131;-03,6490;-00,1120;-08,9340;+00,166690;-00,037661;-00,014936;+031,90;+101,17
-00,151;+00,106;-00,131;-03,6250;-00,2010;-08,8340;+00,178351;-00,047308;-00,018415;+031,90;+101,17
-00,151;+00,105;-00,132;-03,5570;-00,3260;-08,6950;+00,165253;-00,050160;-00,018322;+031,90;+101,17
-00,152;+00,107;-00,132;-03,5310;-00,3940;-08,6470;+00,147272;-00,064031;-00,010893;+031,90;+101,18
-00,153;+00,105;-00,131;-03,7580;-00,3900;-08,6940;+00,117741;-00,047519;-00,002717;+031,90;+101,18
-00,152;+00,105;-00,132;-03,7230;-00,3240;-09,0390;+00,122694;-00,046021;-00,001709;+031,90;+101,18
-00,151;+00,106;-00,131;-03,8100;-00,1530;-09,0180;+00,169275;-00,065592;-00,012538;+031,90;+101,17
-00,151;+00,107;-00,136;-03,6150;-00,4450;-08,8740;+00,184187;-00,072584;-00,012472;+031,90;+101,17
-00,152;+00,105;-00,131;-03,7520;-00,2270;-08,9440;+00,194155;-00,080673;-00,014971;+031,90;+101,18
-00,152;+00,106;-00,134;-03,7940;-00,2140;-08,8900;+00,193164;-00,065602;-00,023750;+031,90;+101,17
-00,151;+00,104;-00,131;-03,7790;-00,3530;-08,8560;+00,179213;-00,051847;-00,031191;+031,90;+101,18
-00,152;+00,104;-00,134;-03,7290;-00,3430;-08,8800;+00,180780;-00,059220;-00,036289;+031,90;+101,18
-00,152;+00,103;-00,131;-03,7400;-00,4040;-08,8630;+00,188895;-00,068715;-00,040627;+031,90;+101,17
-00,153;+00,108;-00,135;-03,8730;-00,4870;-08,9310;+00,183758;-00,065750;-00,036603;+031,90;+101,17
-00,151;+00,102;-00,132;-03,8180;-00,3960;-08,8980;+00,182366;-00,051520;-00,033786;+031,90;+101,17
-00,152;+00,105;-00,137;-03,7970;-00,5160;-08,7190;+00,143800;-00,021665;-00,028044;+031,90;+101,17
-00,152;+00,105;-00,132;-03,7770;-00,5100;-08,7060;+00,106062;+00,004144;-00,024205;+031,90;+101,16
-00,152;+00,106;-00,135;-03,7070;-00,4890;-08,6670;+00,058329;+00,028074;-00,020951;+031,90;+101,18
-00,152;+00,105;-00,133;-03,6650;-00,4830;-08,6810;+00,007002;+00,034731;-00,019437;+031,90;+101,18
-00,151;+00,105;-00,132;-03,6840;-00,2810;-08,9690;+00,024362;+00,007488;-00,022684;+031,90;+101,18
-00,151;+00,106;-00,133;-03,6470;-00,4980;-08,7750;+00,026709;-00,003314;-00,024421;+031,90;+101,18
-00,151;+00,103;-00,135;-03,6020;-00,5300;-08,7090;+00,010094;-00,014159;-00,018557;+031,90;+101,18
-00,151;+00,104;-00,132;-03,7960;-00,5740;-08,7670;-00,008767;-00,010273;-00,011780;+031,90;+101,17
-00,151;+00,105;-00,135;-03,8180;-00,4470;-08,8220;-00,036727;+00,006036;-00,006240;+031,90;+101,17
-00,153;+00,105;-00,133;-03,7630;-00,5320;-08,7090;-00,058022;+00,020625;-00,002078;+031,90;+101,18
-00,152;+00,106;-00,132;-03,8210;-00,5930;-08,7390;-00,071906;+00,028273;+00,005318;+031,90;+101,18
-00,151;+00,104;-00,133;-03,7620;-00,5520;-08,7200;-00,095135;+00,052453;+00,010255;+031,90;+101,18
-00,153;+00,105;-00,134;-03,5660;-00,6390;-08,5650;-00,130630;+00,048142;+00,025673;+031,90;+101,18
-00,151;+00,105;-00,131;-03,7500;-00,4660;-08,7070;-00,154796;+00,050773;+00,038625;+031,90;+101,18
-00,151;+00,104;-00,134;-03,8840;-00,4420;-08,8910;-00,154516;+00,056740;+00,034932;+031,90;+101,17
-00,151;+00,104;-00,133;-03,8470;-00,3730;-08,9520;-00,153371;+00,074851;+00,029134;+031,90;+101,18
-00,152;+00,103;-00,135;-03,7760;-00,1860;-09,0330;-00,129426;+00,061974;+00,019237;+031,90;+101,16
-00,151;+00,105;-00,132;-03,5630;-00,2790;-08,7480;-00,122001;+00,045829;+00,006539;+031,90;+101,17
-00,151;+00,105;-00,132;-03,5740;-00,3980;-08,8180;-00,117478;+00,018024;+00,006030;+031,90;+101,18
-00,151;+00,105;-00,132;-03,5510;-00,4690;-08,7410;-00,118683;+00,000979;+00,012805;+031,90;+101,17
-00,151;+00,105;-00,132;-03,6850;-00,4490;-08,7800;-00,121928;+00,001869;+00,025839;+031,90;+101,17
-00,151;+00,103;-00,130;-03,7730;-00,2550;-09,0130;-00,114345;+00,014395;+00,039488;+031,90;+101,16
-00,151;+00,108;-00,133;-03,7720;-00,3090;-09,0030;-00,092174;+00,005600;+00,033362;+031,90;+101,18
-00,151;+00,105;-00,131;-03,8640;-00,2190;-08,9960;-00,079325;+00,009685;+00,029991;+031,90;+101,17
-00,150;+00,108;-00,133;-03,7830;-00,2410;-08,9240;-00,069555;+00,022045;+00,021143;+031,90;+101,18
-00,150;+00,105;-00,129;-03,6980;-00,2250;-08,9130;-00,061466;+00,019409;+00,016743;+031,90;+101,17
-00,150;+00,106;-00,132;-03,5740;-00,2380;-08,7880;-00,060613;+00,011358;+00,015858;+031,90;+101,17
-00,151;+00,105;-00,131;-03,4050;-00,3890;-08,7760;-00,057587;-00,017988;+00,026663;+031,90;+101,17
-00,151;+00,108;-00,133;-03,2650;-00,3910;-08,7330;-00,063096;-00,074889;+00,041051;+031,90;+101,18
-00,151;+00,106;-00,130;-03,0180;-00,4580;-08,7140;-00,085155;-00,181340;+00,068568;+031,90;+101,16
-00,152;+00,107;-00,132;-02,7540;-00,3780;-08,7190;-00,095678;-00,324606;+00,112342;+031,90;+101,17
-00,151;+00,105;-00,130;-03,3200;-00,1500;-08,9670;-00,089703;-00,468390;+00,146977;+031,90;+101,18
-00,152;+00,107;-00,128;-04,0060;+00,1930;-09,1320;-00,099935;-00,612325;+00,116705;+031,90;+101,17
-00,150;+00,106;-00,128;-02,8410;+00,8830;-08,3320;-00,255919;-00,888495;+00,034858;+031,90;+101,16
-00,152;+00,110;-00,127;-03,9660;+00,4000;-08,7600;-00,531772;-01,363776;-00,094578;+031,90;+101,17
-00,153;+00,106;-00,122;-03,1030;-00,5610;-09,9800;-00,719619;-01,964010;-00,125915;+031,90;+101,18
-00,154;+00,110;-00,118;-03,0590;-00,9330;-11,0430;-00,738224;-02,918820;-00,109719;+031,90;+101,17
-00,154;+00,105;-00,110;-00,4380;-01,9790;-12,4390;-00,869740;-04,044317;+00,002908;+031,90;+101,18
-00,155;+00,108;-00,103;-01,6310;-02,2500;-16,6210;-00,913390;-05,095152;+00,350892;+031,90;+101,18
-00,153;+00,107;-00,091;-05,4000;-00,4940;-34,7280;-01,560033;-05,463592;+00,228881;+031,90;+101,18
-00,153;+00,110;-00,083;-05,4330;+01,7600;-43,0630;-01,974247;-03,161845;+00,563386;+031,90;+101,18
-00,152;+00,107;-00,071;-41,5360;-01,6060;-39,8320;-01,692842;-01,408910;-00,024164;+031,90;+101,17
-00,152;+00,107;-00,072;-06,5480;+08,9780;-23,3590;-01,506167;-00,550166;+00,297163;+031,90;+101,17
-00,150;+00,109;-00,066;-08,3120;+12,0750;-09,7960;-00,981538;-00,782476;+01,051017;+031,90;+101,17
-00,149;+00,111;-00,068;-14,4510;+10,5330;-21,2940;-00,391144;-00,999985;+01,744018;+031,90;+101,18
-00,146;+00,114;-00,062;-16,1310;+04,5520;-25,4500;-00,227428;-00,194846;+02,206138;+031,90;+101,18
-00,144;+00,118;-00,064;-12,6250;+00,9060;-16,8720;-00,459642;+00,362117;+02,471094;+031,90;+101,18
-00,139;+00,121;-00,061;-10,4100;-01,0620;-09,8800;-00,666706;+00,334382;+02,442049;+031,90;+101,16
-00,137;+00,128;-00,061;-09,9660;-02,7690;-07,7890;-00,614241;+00,190378;+02,114837;+031,90;+101,18
-00,133;+00,127;-00,062;-09,0380;-05,0000;-07,1110;-00,446914;+00,117024;+01,578281;+031,90;+101,17
-00,133;+00,128;-00,065;-07,8120;-05,7870;-06,2980;-00,335059;+00,100184;+00,966254;+031,90;+101,17
-00,129;+00,129;-00,062;-06,6900;-04,9170;-05,3590;-00,276049;+00,125016;+00,378479;+031,90;+101,17
-00,130;+00,129;-00,061;-05,2450;-03,1860;-02,9890;-00,280831;+00,183539;-00,041206;+031,90;+101,16
-00,131;+00,128;-00,058;-03,3510;-00,5980;-02,5770;-00,204933;+00,121452;-00,270655;+031,90;+101,17
-00,131;+00,130;-00,060;-05,4170;+02,6170;-07,6690;+00,209608;+00,173295;-00,450352;+031,90;+101,17
-00,131;+00,128;-00,060;-06,4700;+03,3900;-08,5600;+00,582922;+00,607189;-00,448412;+031,90;+101,17
-00,132;+00,129;-00,062;-04,4410;+03,7180;-03,1980;+00,608547;+00,860604;-00,274802;+031,90;+101,17
-00,134;+00,126;-00,064;-02,6260;+03,6480;+02,3230;+00,452680;+00,704373;-00,074132;+031,90;+101,17
-00,133;+00,128;-00,068;-01,8680;+02,8770;+04,2260;+00,355093;+00,413628;+00,068737;+031,90;+101,16
-00,132;+00,126;-00,067;-02,2490;+01,5200;+02,6500;+00,451227;+00,243077;+00,083211;+031,90;+101,18
-00,133;+00,130;-00,068;-02,2370;-00,8180;+02,5420;+00,562979;+00,296203;-00,077891;+031,90;+101,17
-00,133;+00,129;-00,067;-00,4890;-02,3830;+05,5530;+00,554620;+00,295879;-00,352191;+031,90;+101,17
-00,133;+00,129;-00,071;+01,0990;-02,5390;+08,4060;+00,520992;+00,103085;-00,669768;+031,90;+101,16
-00,135;+00,125;-00,069;+01,4310;-02,2750;+09,0430;+00,574416;-00,157801;-00,994489;+031,90;+101,17
-00,136;+00,126;-00,073;+01,2860;-02,1060;+08,8050;+00,708111;-00,341696;-01,337630;+031,90;+101,17
-00,138;+00,121;-00,071;+01,1920;-01,8680;+08,9060;+00,791662;-00,455137;-01,681692;+031,90;+101,16
-00,140;+00,122;-00,072;+00,9980;-01,3030;+08,5700;+00,637760;-00,502008;-01,929813;+031,90;+101,17
-00,143;+00,118;-00,071;+00,7760;+00,2330;+08,1120;+00,273290;-00,525844;-01,965638;+031,90;+101,16
-00,145;+00,116;-00,070;+01,1060;+02,9370;+08,3530;-00,092359;-00,566368;-01,815463;+031,90;+101,17
-00,148;+00,110;-00,066;+01,5870;+05,4920;+08,2460;-00,276879;-00,682332;-01,485492;+031,90;+101,17
-00,148;+00,110;-00,068;+01,6850;+07,4470;+07,7940;-00,222983;-00,822405;-01,038627;+031,90;+101,16
-00,150;+00,107;-00,063;+01,6310;+07,4170;+07,0980;-00,020329;-01,013864;-00,533846;+031,90;+101,17
-00,150;+00,108;-00,064;+01,1370;+05,8310;+06,2880;+00,235485;-01,219263;-00,111901;+031,90;+101,16
-00,148;+00,108;-00,061;-00,3300;+03,0950;+05,2180;+00,402590;-01,296247;+00,130123;+031,90;+101,17
-00,148;+00,107;-00,061;-01,6470;+00,3700;+04,2500;+00,372600;-01,178651;+00,203619;+031,90;+101,16
-00,147;+00,108;-00,056;-02,1480;-01,2420;+03,3590;+00,264279;-00,958582;+00,166791;+031,90;+101,16
-00,147;+00,108;-00,059;-02,2930;-01,7350;+03,4820;+00,171079;-00,738068;+00,047074;+031,90;+101,16
-00,147;+00,107;-00,056;-02,1240;-01,8440;+03,5760;+00,102617;-00,607788;-00,078363;+031,90;+101,17
-00,146;+00,111;-00,059;-02,1590;-01,8430;+03,3370;+00,079055;-00,514000;-00,230275;+031,90;+101,17
-00,147;+00,110;-00,056;-01,8950;-01,2020;+02,5690;+00,105781;-00,467875;-00,350275;+031,90;+101,16
-00,147;+00,107;-00,056;-01,7940;+00,2000;+01,0590;+00,180465;-00,424504;-00,396938;+031,90;+101,17
-00,147;+00,108;-00,054;-01,8320;+02,9120;-00,4500;+00,396231;-00,327779;-00,308535;+031,90;+101,17
-00,148;+00,107;-00,056;-01,7790;+04,9550;-01,4290;+00,647153;-00,292855;-00,056059;+031,90;+101,17
-00,148;+00,107;-00,053;-03,3050;+05,0930;-03,4360;+00,829164;-00,298580;+00,322955;+031,90;+101,17
-00,148;+00,109;-00,057;-05,2860;+02,9110;-05,9580;+00,800261;-00,294315;+00,632215;+031,90;+101,16
-00,146;+00,110;-00,056;-07,5130;-00,9480;-09,4830;+00,673637;-00,216928;+00,690960;+031,90;+101,18
-00,146;+00,111;-00,057;-10,2710;-05,6160;-13,5110;+00,440654;+00,086118;+00,412232;+031,90;+101,18
-00,145;+00,112;-00,058;-12,1590;-08,4570;-15,4850;+00,216739;+00,555125;-00,169456;+031,90;+101,16
-00,146;+00,112;-00,062;-11,1960;-08,7940;-13,2370;-00,061680;+01,019338;-00,781293;+031,90;+101,17
-00,148;+00,110;-00,062;-10,1970;-05,5170;-11,1010;-00,284006;+01,125216;-01,256440;+031,90;+101,17
-00,150;+00,109;-00,064;-11,0820;-01,7480;-12,0550;-00,339341;+01,170247;-01,456821;+031,90;+101,17
-00,151;+00,105;-00,066;-11,0090;+01,0410;-12,9180;-00,282670;+01,293340;-01,424128;+031,90;+101,18
-00,154;+00,104;-00,068;-09,3990;+02,3640;-12,4430;-00,159210;+01,293507;-01,248848;+031,90;+101,18
-00,156;+00,102;-00,070;-09,7430;+03,1180;-13,5170;+00,053502;+01,164606;-01,055071;+031,90;+101,18
-00,157;+00,102;-00,073;-26,3750;+04,6130;-09,0600;-00,131835;+00,902293;-00,468754;+031,90;+101,21
-00,158;+00,098;-00,083;-08,2000;+22,5800;-41,3300;+00,387295;+09,126495;+00,164847;+031,90;+101,17
-00,159;+00,100;-00,095;-04,5180;+22,2550;-24,9480;+00,504897;+04,790266;-00,798951;+031,90;+101,16
-00,160;+00,095;-00,103;-13,4750;-21,3790;-12,6570;-00,615607;+05,044080;-00,145476;+031,90;+101,19
-00,158;+00,098;-00,113;+09,3390;+15,9560;-14,0460;+00,455860;+02,962303;+00,254096;+031,90;+101,17
-00,157;+00,097;-00,118;-00,8740;-07,8410;-09,4780;+00,584685;+01,570981;+00,640849;+031,90;+101,18
-00,157;+00,101;-00,120;-03,9340;+04,8170;-09,5040;+00,405653;+01,073187;+00,478975;+031,90;+101,17
-00,156;+00,101;-00,121;-04,9240;+00,6720;-09,1970;+00,494555;+00,922039;+00,312116;+031,90;+101,17
-00,155;+00,102;-00,124;-01,9390;+02,0770;-08,2790;+00,390271;+00,788592;+00,010788;+031,90;+101,17
-00,156;+00,098;-00,124;-06,8000;+00,0820;-10,3610;+00,255677;+00,591862;-00,251945;+031,90;+101,17
-00,156;+00,102;-00,126;-02,0340;+01,1650;-09,3110;+00,182415;+00,549155;-00,228625;+031,90;+101,17
-00,156;+00,099;-00,125;-01,7370;-00,7690;-08,6940;+00,115184;+00,207690;-00,116615;+031,90;+101,17
-00,156;+00,101;-00,130;-03,2740;-00,2980;-08,8080;+00,083354;-00,048418;-00,041790;+031,90;+101,17
-00,157;+00,099;-00,125;-04,3490;-00,3190;-08,8000;+00,069226;+00,019318;-00,058629;+031,90;+101,18
-00,156;+00,103;-00,126;-03,9680;-00,4780;-08,7290;+00,055162;+00,077245;-00,061694;+031,90;+101,18
-00,156;+00,099;-00,128;-03,8510;-00,4090;-08,7560;+00,048378;+00,103152;-00,043641;+031,90;+101,18
-00,156;+00,102;-00,127;-03,4680;-00,3680;-08,8060;+00,056347;+00,072621;-00,023039;+031,90;+101,17
-00,156;+00,099;-00,127;-03,7680;-00,1610;-09,0230;+00,101822;+00,026832;-00,025847;+031,90;+101,17
-00,158;+00,101;-00,131;-03,8190;-00,0970;-09,1510;+00,147762;-00,007297;-00,030384;+031,90;+101,17
-00,155;+00,098;-00,129;-03,7140;+00,0260;-09,2690;+00,202344;-00,023208;-00,029879;+031,90;+101,18
-00,156;+00,100;-00,130;-04,0970;+00,1450;-09,6040;+00,270806;-00,042235;-00,041051;+031,90;+101,17
-00,156;+00,098;-00,127;-04,2960;+00,2620;-09,7610;+00,348919;-00,008439;-00,073083;+031,90;+101,18
-00,157;+00,099;-00,130;-03,8940;-00,1200;-09,3090;+00,394374;+00,011609;-00,092515;+031,90;+101,17
-00,155;+00,097;-00,131;-04,1280;-00,0610;-09,1080;+00,420227;+00,060890;-00,106700;+031,90;+101,17
-00,156;+00,097;-00,131;-03,9370;-00,0440;-09,0100;+00,440034;+00,126346;-00,108750;+031,90;+101,17
-00,156;+00,098;-00,129;-03,7010;-00,4390;-08,7060;+00,382615;+00,148137;-00,120050;+031,90;+101,18
-00,157;+00,100;-00,134;-03,7970;-00,2510;-08,8780;+00,394281;+00,158719;-00,121495;+031,90;+101,18
-00,156;+00,097;-00,132;-03,3030;-00,8820;-08,3550;+00,366060;+00,139855;-00,124455;+031,90;+101,17
-00,156;+00,097;-00,133;-03,3850;-00,6480;-08,7660;+00,413957;+00,056873;-00,120376;+031,90;+101,17
-00,157;+00,097;-00,131;-03,2950;-00,7420;-08,5680;+00,467465;+00,014381;-00,112983;+031,90;+101,18
-00,156;+00,097;-00,134;-03,4640;-00,9250;-08,5720;+00,462707;-00,021085;-00,101561;+031,90;+101,17
-00,158;+00,095;-00,134;-04,0560;-00,3820;-09,3320;+00,495220;+00,012713;-00,099687;+031,90;+101,17
-00,156;+00,096;-00,135;-03,7780;-00,9000;-09,2270;+00,576868;+00,037614;-00,103385;+031,90;+101,17
-00,156;+00,095;-00,134;-04,2460;+00,1290;-09,9030;+00,746880;+00,021723;-00,140991;+031,90;+101,18
-00,157;+00,094;-00,135;-03,8010;-00,6080;-09,1390;+00,779029;+00,072867;-00,175023;+031,90;+101,17
-00,157;+00,092;-00,136;-03,4560;-01,1950;-08,3600;+00,742847;+00,062434;-00,171497;+031,90;+101,17
-00,158;+00,094;-00,137;-03,6260;-01,0770;-08,5830;+00,721789;+00,055051;-00,174540;+031,90;+101,17
-00,157;+00,093;-00,140;-03,5660;-01,1070;-08,4480;+00,689428;+00,043497;-00,171418;+031,90;+101,17
-00,158;+00,093;-00,140;-03,0320;-01,6940;-07,8340;+00,564472;+00,005493;-00,151463;+031,90;+101,17
-00,157;+00,090;-00,139;-03,2160;-01,5690;-08,0020;+00,472195;-00,050276;-00,110160;+031,90;+101,17
-00,158;+00,092;-00,139;-03,0080;-01,6690;-07,5040;+00,294521;-00,055760;-00,083498;+031,90;+101,17
-00,157;+00,090;-00,141;-02,9830;-02,0410;-07,7470;+00,105417;-00,094342;-00,017157;+031,90;+101,18
-00,158;+00,091;-00,143;-03,9460;-01,1490;-08,9570;-00,000401;-00,064841;+00,016665;+031,90;+101,17
-00,158;+00,091;-00,140;-03,8350;-01,2450;-08,9470;-00,027146;-00,017930;+00,016427;+031,90;+101,18
-00,157;+00,093;-00,140;-03,7840;-01,1490;-09,0310;-00,042792;+00,001910;+00,022118;+031,90;+101,17
-00,158;+00,090;-00,137;-03,6350;-01,0650;-08,8960;-00,047606;+00,007372;+00,022132;+031,90;+101,17
-00,157;+00,093;-00,144;-03,6430;-01,6380;-08,3540;-00,070714;-00,006235;+00,019245;+031,90;+101,17
-00,158;+00,089;-00,138;-03,8390;-01,2240;-08,8520;-00,111051;+00,013525;+00,019256;+031,90;+101,17
-00,158;+00,092;-00,143;-03,7390;-01,1000;-08,9330;-00,105874;+00,030070;+00,010267;+031,90;+101,18
-00,159;+00,090;-00,138;-03,5760;-01,4000;-08,5260;-00,140858;+00,038452;+00,014085;+031,90;+101,16
-00,157;+00,093;-00,143;-03,2560;-01,4530;-08,1440;-00,209852;+00,018195;+00,027465;+031,90;+101,18
-00,158;+00,090;-00,139;-03,0640;-01,5540;-07,9550;-00,306272;-00,029144;+00,058223;+031,90;+101,17
-00,159;+00,093;-00,140;-03,3840;-01,5630;-08,2670;-00,392562;-00,073448;+00,088852;+031,90;+101,17
-00,158;+00,091;-00,138;-03,7760;-01,0050;-08,6710;-00,435607;-00,062029;+00,092440;+031,90;+101,17
-00,158;+00,093;-00,137;-03,5210;-01,2320;-08,4890;-00,480083;-00,057297;+00,098553;+031,90;+101,17
-00,157;+00,091;-00,136;-03,6460;-00,9850;-08,7360;-00,514394;-00,084513;+00,103417;+031,90;+101,18
-00,158;+00,094;-00,139;-04,0600;-00,9120;-08,8940;-00,522153;-00,070465;+00,086224;+031,90;+101,17
-00,156;+00,094;-00,136;-03,7410;-01,2020;-08,6660;-00,553306;-00,034298;+00,092879;+031,90;+101,17
-00,157;+00,096;-00,135;-03,4650;-00,7990;-08,7310;-00,602399;-00,037275;+00,113917;+031,90;+101,16
-00,156;+00,095;-00,133;-03,6800;-00,6960;-08,8610;-00,608163;-00,037903;+00,116270;+031,90;+101,18
-00,158;+00,097;-00,135;-03,5620;-00,9750;-08,4240;-00,650258;-00,027526;+00,146310;+031,90;+101,17
-00,156;+00,095;-00,134;-04,0800;-00,6820;-09,1210;-00,627720;-00,009834;+00,162972;+031,90;+101,17
-00,156;+00,097;-00,135;-04,0810;+00,0010;-09,5510;-00,518601;+00,024114;+00,128554;+031,90;+101,17
-00,156;+00,097;-00,132;-03,8710;-00,4550;-09,1710;-00,433275;+00,028871;+00,105729;+031,90;+101,18
-00,157;+00,099;-00,134;-03,9480;-00,3220;-09,1380;-00,396215;+00,034247;+00,091078;+031,90;+101,17
-00,157;+00,095;-00,130;-03,6970;-00,5920;-08,7710;-00,375019;+00,051424;+00,080469;+031,90;+101,17
-00,156;+00,100;-00,133;-03,1870;-00,6790;-08,4140;-00,361898;+00,018041;+00,101174;+031,90;+101,17
-00,155;+00,097;-00,130;-03,6720;+00,0780;-09,3200;-00,284947;-00,011750;+00,101045;+031,90;+101,17
-00,156;+00,100;-00,130;-03,2470;-00,3370;-08,9610;-00,258875;-00,070790;+00,093624;+031,90;+101,16
-00,156;+00,100;-00,132;-03,2000;-00,3260;-08,9990;-00,259344;-00,153815;+00,110920;+031,90;+101,18
-00,155;+00,100;-00,129;-02,7990;-00,4130;-08,8710;-00,275319;-00,285630;+00,144428;+031,90;+101,16
-00,155;+00,099;-00,127;-03,1320;-00,3510;-09,0410;-00,271631;-00,449996;+00,191329;+031,90;+101,18
-00,156;+00,098;-00,130;-04,0110;-00,0910;-09,2870;-00,237814;-00,576012;+00,202297;+031,90;+101,18
-00,156;+00,103;-00,125;-03,7080;+00,3550;-09,0230;-00,224672;-00,767332;+00,199801;+031,90;+101,17
-00,155;+00,102;-00,124;-03,8480;+00,4810;-09,0040;-00,345896;-01,138213;+00,086623;+031,90;+101,18
-00,155;+00,102;-00,121;-03,5370;+00,5690;-09,3860;-00,452932;-01,567360;-00,027094;+031,90;+101,17
-00,156;+00,101;-00,120;-02,7270;-00,4700;-10,5580;-00,357892;-02,291814;-00,066069;+031,90;+101,18
-00,157;+00,103;-00,111;-01,9300;-01,0450;-10,6150;-00,534418;-03,281812;-00,050593;+031,90;+101,16
-00,158;+00,102;-00,107;-01,9530;-01,2140;-12,7200;-00,651828;-04,305606;+00,079187;+031,90;+101,17
-00,158;+00,101;-00,094;-02,1330;+00,0340;-20,7650;-00,397034;-05,601352;+00,244754;+031,90;+101,17
-00,159;+00,103;-00,088;-05,3620;-03,8280;-28,8570;-01,534070;-05,709877;+00,468899;+031,90;+101,18
-00,155;+00,102;-00,073;-10,6520;+03,6160;-33,4990;-02,231811;-03,808201;+00,706143;+031,90;+101,18
-00,154;+00,105;-00,068;-39,2350;+03,2130;-36,9640;-01,769641;-02,144049;+00,832058;+031,90;+101,17
-00,152;+00,104;-00,062;-15,0030;+07,8230;-27,4490;-00,887951;-00,916179;+01,127500;+031,90;+101,18
-00,151;+00,108;-00,060;-10,4540;+06,9370;-09,7620;-00,356235;-00,655188;+01,638957;+031,90;+101,18
-00,147;+00,110;-00,056;-12,5730;+03,5960;-10,8160;-00,308669;-01,133542;+02,028082;+031,90;+101,18
-00,144;+00,113;-00,059;-16,1270;-00,8510;-16,8530;-00,443611;-00,838391;+02,073158;+031,90;+101,17
-00,141;+00,116;-00,052;-15,1870;-02,5000;-16,6130;-00,533482;-00,276611;+01,864711;+031,90;+101,17
-00,140;+00,121;-00,053;-12,8180;-02,2310;-12,5120;-00,522068;+00,025568;+01,518203;+031,90;+101,17
-00,136;+00,119;-00,050;-10,5420;-01,9830;-08,5650;-00,440433;+00,052867;+01,157617;+031,90;+101,17
-00,137;+00,123;-00,051;-09,4030;-02,2870;-07,9460;-00,368081;-00,011136;+00,778899;+031,90;+101,18
-00,135;+00,121;-00,049;-08,8740;-02,9410;-08,3770;-00,294648;+00,077957;+00,371194;+031,90;+101,17
-00,136;+00,124;-00,051;-07,3280;-02,8330;-07,3150;-00,231189;+00,271558;-00,015906;+031,90;+101,18
-00,134;+00,121;-00,050;-04,9360;-02,0930;-03,9470;-00,217130;+00,438849;-00,319643;+031,90;+101,17
-00,135;+00,122;-00,052;-02,2700;-00,7960;-00,1690;-00,232840;+00,423324;-00,513668;+031,90;+101,16
-00,137;+00,120;-00,050;-00,5370;+00,4070;+01,7840;-00,236634;+00,279940;-00,588385;+031,90;+101,17
-00,137;+00,119;-00,051;-00,0170;+01,8400;+01,3040;-00,082005;+00,181819;-00,629939;+031,90;+101,18
-00,138;+00,116;-00,048;+00,1780;+02,3180;+01,4640;+00,145551;+00,249448;-00,632157;+031,90;+101,16
-00,138;+00,119;-00,052;+01,4680;+01,8440;+03,2190;+00,261255;+00,294179;-00,565159;+031,90;+101,17
-00,139;+00,118;-00,052;+02,1170;+01,4410;+04,8270;+00,273135;+00,241142;-00,498140;+031,90;+101,17
-00,140;+00,115;-00,054;+02,1780;+01,3860;+05,2770;+00,312338;+00,168753;-00,470126;+031,90;+101,17
-00,141;+00,116;-00,053;+01,7700;+01,1960;+05,3260;+00,376861;+00,137996;-00,465356;+031,90;+101,16
-00,142;+00,116;-00,053;+01,7700;+00,6240;+06,4350;+00,427272;+00,097466;-00,510934;+031,90;+101,16
-00,143;+00,115;-00,054;+02,1170;+00,4220;+08,6150;+00,388477;-00,036981;-00,570184;+031,90;+101,16
-00,143;+00,115;-00,056;+02,1740;+00,0190;+09,5120;+00,304234;-00,293893;-00,646558;+031,90;+101,17
-00,144;+00,111;-00,054;+01,3950;-00,6300;+09,0480;+00,211506;-00,524311;-00,753808;+031,90;+101,16
-00,145;+00,111;-00,056;+00,8770;-01,2800;+08,2600;+00,116392;-00,688391;-00,919738;+031,90;+101,17
-00,145;+00,108;-00,051;+00,7870;-01,3490;+07,4920;+00,088386;-00,841802;-01,121608;+031,90;+101,17
-00,146;+00,109;-00,051;+00,4990;-00,6290;+05,6750;+00,208794;-00,976522;-01,320089;+031,90;+101,17
-00,147;+00,102;-00,049;-00,1660;+00,4260;+03,9740;+00,429976;-00,986880;-01,493247;+031,90;+101,17
-00,149;+00,107;-00,050;-00,3480;+01,4670;+03,6150;+00,610193;-00,862686;-01,562911;+031,90;+101,17
-00,150;+00,099;-00,050;+00,2130;+02,7790;+04,1960;+00,648526;-00,785343;-01,447021;+031,90;+101,16
-00,151;+00,099;-00,049;+00,0990;+04,1300;+03,9170;+00,535407;-00,704733;-01,181261;+031,90;+101,16
-00,151;+00,097;-00,045;-00,2510;+04,8690;+02,2500;+00,407209;-00,599526;-00,802853;+031,90;+101,18
-00,152;+00,097;-00,047;-01,0060;+05,3390;+00,4180;+00,335003;-00,422365;-00,391385;+031,90;+101,17
-00,153;+00,092;-00,046;-01,4900;+05,1290;-00,4570;+00,326665;-00,157146;-00,005948;+031,90;+101,17
-00,152;+00,097;-00,047;-01,7000;+04,1540;-00,8510;+00,379059;+00,076623;+00,326245;+031,90;+101,17
-00,151;+00,096;-00,049;-02,2240;+02,7590;-01,6870;+00,446408;+00,209034;+00,544668;+031,90;+101,18
-00,151;+00,099;-00,050;-03,7030;+00,9650;-03,6630;+00,477935;+00,405079;+00,642739;+031,90;+101,17
-00,151;+00,102;-00,050;-04,6550;-00,5040;-05,6710;+00,491834;+00,682819;+00,604068;+031,90;+101,17
-00,151;+00,103;-00,054;-05,2590;-00,6050;-06,6330;+00,556793;+00,911022;+00,485171;+031,90;+101,17
-00,152;+00,102;-00,054;-05,5860;-00,3330;-07,0110;+00,670083;+01,054013;+00,397483;+031,90;+101,17
-00,151;+00,103;-00,056;-06,1110;-00,6230;-07,7940;+00,726178;+01,142852;+00,338856;+031,90;+101,18
-00,150;+00,105;-00,059;-06,3840;-01,5660;-08,0820;+00,745441;+01,206836;+00,271311;+031,90;+101,17
-00,152;+00,106;-00,065;-07,0520;-03,5340;-09,2920;+00,623506;+01,226845;+00,146593;+031,90;+101,17
-00,151;+00,104;-00,066;-08,5190;-05,3130;-11,3190;+00,443381;+01,268087;-00,105920;+031,90;+101,17
-00,153;+00,106;-00,069;-10,4570;-05,9180;-14,2670;+00,285458;+01,355833;-00,467837;+031,90;+101,17
-00,154;+00,103;-00,073;-12,6270;-05,5170;-17,0160;+00,197999;+01,622875;-00,832867;+031,90;+101,17
-00,155;+00,104;-00,077;-13,4090;-04,2360;-18,1290;+00,126424;+01,977562;-01,115166;+031,90;+101,18
-00,157;+00,101;-00,081;-13,1580;-01,9890;-16,7350;+00,024281;+02,253537;-01,218102;+031,90;+101,18
-00,159;+00,102;-00,085;-11,9130;+00,3520;-13,9850;-00,064273;+02,300904;-01,064179;+031,90;+101,17
-00,160;+00,098;-00,087;-10,7580;+02,3970;-11,4360;+00,004165;+02,135484;-00,755093;+031,90;+101,17
-00,161;+00,098;-00,092;-10,4530;+03,0090;-10,4680;+00,275241;+01,853532;-00,404989;+031,90;+101,17
-00,160;+00,099;-00,096;-42,4310;+23,1810;-72,9640;+00,642140;+08,607886;+00,800804;+031,90;+101,18
-00,160;+00,102;-00,106;-01,3500;+08,2480;-18,5820;-00,010705;+03,148613;-00,100864;+031,90;+101,17
-00,159;+00,101;-00,114;-08,4110;-09,1880;-16,2070;-00,776049;+04,476543;+00,027139;+031,90;+101,17
-00,160;+00,100;-00,119;+06,1790;+08,0190;-10,5430;-00,199587;+03,232055;+00,304647;+031,90;+101,18
-00,157;+00,102;-00,123;+07,6330;-01,5340;-06,2970;+00,524978;+01,104257;+00,362785;+031,90;+101,18
-00,158;+00,103;-00,125;-01,9130;+03,8040;-07,0230;+00,454092;+00,722695;+00,193738;+031,90;+101,17
-00,158;+00,100;-00,126;-12,6160;-03,6950;-11,3510;+00,096782;+00,929583;+00,039352;+031,90;+101,18
-00,157;+00,104;-00,130;+00,2210;+04,5980;-09,8310;+00,079141;+00,676268;-00,172755;+031,90;+101,17
-00,156;+00,100;-00,129;-00,7130;-00,6040;-09,0140;+00,106078;+00,030035;-00,128660;+031,90;+101,17
-00,157;+00,102;-00,130;-03,7330;+00,9330;-10,0210;+00,160294;-00,138969;-00,118439;+031,90;+101,17
-00,157;+00,099;-00,129;-04,1310;+00,4250;-09,0180;+00,184695;-00,105796;-00,124392;+031,90;+101,18
-00,157;+00,100;-00,131;-04,0640;-00,7800;-08,8940;+00,187889;+00,004970;-00,147231;+031,90;+101,18
-00,157;+00,098;-00,129;-03,8830;-00,9920;-08,6720;+00,158338;+00,048002;-00,090712;+031,90;+101,17
-00,159;+00,101;-00,132;-03,7250;-00,5990;-08,7270;+00,074253;+00,071047;-00,040450;+031,90;+101,18
-00,156;+00,100;-00,132;-03,7890;-00,3620;-08,7260;+00,024716;+00,114577;-00,009375;+031,90;+101,17
-00,157;+00,101;-00,132;-03,5830;-00,0700;-08,9980;+00,026295;+00,103564;-00,009640;+031,90;+101,17
-00,157;+00,099;-00,130;-03,5290;+00,1580;-09,1780;+00,066633;+00,068584;-00,027961;+031,90;+101,17
-00,157;+00,102;-00,131;-03,5730;+00,0930;-09,3670;+00,136058;+00,037378;-00,046545;+031,90;+101,17
-00,158;+00,098;-00,131;-03,7500;+00,1560;-09,4760;+00,233802;+00,013076;-00,064961;+031,90;+101,17
-00,157;+00,100;-00,134;-03,6890;+00,1080;-09,2720;+00,324904;+00,000837;-00,083124;+031,90;+101,17
-00,156;+00,100;-00,131;-03,2410;-00,3540;-08,6900;+00,350034;-00,016331;-00,082777;+031,90;+101,18
-00,158;+00,099;-00,133;-03,5340;-00,3800;-08,8210;+00,342433;-00,044671;-00,070328;+031,90;+101,17
-00,158;+00,098;-00,130;-03,6710;-00,2490;-08,9760;+00,333138;-00,019301;-00,071781;+031,90;+101,18
-00,157;+00,099;-00,133;-03,4600;-00,4080;-08,8650;+00,341059;-00,019987;-00,070551;+031,90;+101,17
-00,157;+00,099;-00,134;-03,5110;-00,3400;-09,0300;+00,365957;-00,046871;-00,068277;+031,90;+101,17
-00,157;+00,097;-00,135;-04,0320;-00,0410;-09,6910;+00,435522;-00,034919;-00,074906;+031,90;+101,17
-00,158;+00,098;-00,133;-03,7330;-00,1760;-09,1330;+00,463066;+00,011190;-00,091336;+031,90;+101,17
-00,158;+00,098;-00,136;-03,7870;-00,3990;-09,2830;+00,468253;+00,039152;-00,086739;+031,90;+101,17
-00,158;+00,097;-00,134;-03,6870;-00,3560;-09,0420;+00,430823;+00,084732;-00,098607;+031,90;+101,17
-00,158;+00,097;-00,138;-03,4650;-00,6930;-08,5900;+00,360860;+00,103187;-00,102470;+031,90;+101,17
-00,157;+00,095;-00,137;-03,3440;-00,7350;-08,4530;+00,323247;+00,100769;-00,084312;+031,90;+101,17
-00,157;+00,098;-00,138;-03,4310;-00,7760;-08,5830;+00,273612;+00,087372;-00,073618;+031,90;+101,17
-00,157;+00,097;-00,137;-03,3230;-00,7980;-08,2920;+00,224924;+00,081878;-00,062641;+031,90;+101,18
-00,159;+00,098;-00,138;-02,8010;-01,2610;-07,8910;+00,129699;+00,032558;-00,042569;+031,90;+101,17
-00,158;+00,096;-00,136;-03,2440;-00,8760;-08,4070;+00,074286;-00,026097;-00,020498;+031,90;+101,18
-00,158;+00,097;-00,140;-03,3800;-00,7920;-08,5430;+00,031954;-00,026579;-00,010276;+031,90;+101,18
-00,158;+00,094;-00,135;-03,5010;-00,8180;-08,7050;-00,005787;-00,029975;-00,002329;+031,90;+101,18
-00,159;+00,097;-00,138;-03,5530;-00,5940;-08,9360;-00,013842;-00,024828;-00,003054;+031,90;+101,16
-00,158;+00,097;-00,138;-03,7200;-00,6730;-09,1940;-00,031736;-00,019584;-00,002619;+031,90;+101,17
-00,158;+00,098;-00,139;-03,6560;-00,6090;-09,0720;-00,041602;+00,004680;-00,006497;+031,90;+101,18
-00,158;+00,093;-00,135;-03,5510;-00,9040;-08,7480;-00,064155;+00,003347;-00,002687;+031,90;+101,18
-00,158;+00,098;-00,138;-03,5520;-00,7640;-08,8080;-00,087941;+00,012136;-00,000046;+031,90;+101,17
-00,158;+00,095;-00,140;-03,2690;-00,8890;-08,4790;-00,130474;+00,002395;+00,011117;+031,90;+101,17
-00,158;+00,095;-00,141;-03,3700;-00,8420;-08,4480;-00,181825;-00,004538;+00,024477;+031,90;+101,18
-00,158;+00,096;-00,137;-03,1910;-00,9370;-08,2830;-00,256709;-00,017551;+00,042142;+031,90;+101,17
-00,158;+00,096;-00,137;-03,2770;-00,7590;-08,3400;-00,340585;-00,024835;+00,061396;+031,90;+101,17
-00,158;+00,096;-00,137;-03,5370;-00,5450;-08,8330;-00,391670;-00,025000;+00,068162;+031,90;+101,18
-00,159;+00,098;-00,135;-03,5000;-00,5910;-08,8110;-00,408567;-00,013182;+00,072293;+031,90;+101,17
-00,157;+00,096;-00,134;-03,4690;-00,4670;-09,1760;-00,410589;-00,031343;+00,081051;+031,90;+101,17
-00,158;+00,098;-00,135;-03,9490;-00,1380;-09,2650;-00,359950;-00,024906;+00,073999;+031,90;+101,17
-00,157;+00,098;-00,135;-03,6520;-00,7750;-08,7740;-00,369852;+00,005514;+00,075056;+031,90;+101,17
-00,157;+00,098;-00,133;-03,7710;+00,0680;-09,3850;-00,326830;+00,020485;+00,067817;+031,90;+101,18
-00,157;+00,099;-00,133;-03,5650;-00,2450;-09,0480;-00,281553;+00,019797;+00,050246;+031,90;+101,17
-00,158;+00,100;-00,135;-03,6270;-00,3080;-08,9680;-00,265408;+00,022584;+00,044311;+031,90;+101,18
-00,157;+00,099;-00,133;-03,4830;-00,2280;-09,0020;-00,240025;+00,004643;+00,043209;+031,90;+101,18
-00,157;+00,100;-00,135;-03,5540;-00,2110;-08,9480;-00,214888;-00,006667;+00,042859;+031,90;+101,17
-00,157;+00,099;-00,132;-03,4340;-00,2570;-08,8860;-00,211458;-00,002894;+00,045546;+031,90;+101,17
-00,157;+00,100;-00,135;-03,5150;-00,0170;-08,9250;-00,161800;-00,001062;+00,034010;+031,90;+101,18
-00,157;+00,100;-00,133;-03,6650;-00,0970;-08,8730;-00,146032;+00,007884;+00,033913;+031,90;+101,17
-00,157;+00,100;-00,132;-03,5210;-00,1550;-08,8850;-00,142613;+00,007327;+00,027149;+031,90;+101,17
-00,157;+00,099;-00,131;-03,5590;-00,0610;-09,0030;-00,107699;-00,018521;+00,020276;+031,90;+101,18
-00,158;+00,101;-00,131;-03,5590;-00,2260;-09,0610;-00,086403;-00,045778;+00,016686;+031,90;+101,18
-00,157;+00,097;-00,131;-03,7310;-00,4150;-08,9190;-00,078218;-00,028417;+00,026709;+031,90;+101,17
-00,158;+00,099;-00,133;-03,6650;+00,0330;-09,2280;-00,059948;-00,015568;+00,027865;+031,90;+101,17
-00,157;+00,100;-00,132;-03,6480;-00,1060;-09,1700;-00,041821;-00,029618;+00,019964;+031,90;+101,17
-00,157;+00,102;-00,132;-03,5700;+00,0070;-09,1020;-00,027957;-00,040620;+00,014464;+031,90;+101,18
-00,158;+00,100;-00,133;-03,4770;-00,1230;-08,9820;-00,014387;-00,060428;+00,010337;+031,90;+101,17
-00,156;+00,104;-00,130;-03,3810;-00,1390;-08,8540;-00,005700;-00,084833;+00,016826;+031,90;+101,17
-00,156;+00,100;-00,131;-03,0280;-00,1670;-08,6390;-00,006467;-00,125195;+00,027053;+031,90;+101,17
-00,158;+00,101;-00,132;-02,6580;-00,2840;-08,6270;-00,016929;-00,234895;+00,052470;+031,90;+101,17
-00,158;+00,101;-00,127;-03,0520;-00,2930;-08,7820;-00,025387;-00,364114;+00,087821;+031,90;+101,18
-00,157;+00,102;-00,130;-03,1520;-00,2170;-08,8960;-00,052126;-00,475046;+00,115376;+031,90;+101,18
-00,156;+00,102;-00,128;-03,5080;+00,1150;-09,0520;-00,114972;-00,638207;+00,139087;+031,90;+101,18
-00,156;+00,103;-00,127;-03,6540;+00,7290;-09,0650;-00,190620;-00,843815;+00,088544;+031,90;+101,18
-00,157;+00,102;-00,124;-03,7640;+00,0540;-08,9500;-00,354022;-01,134203;+00,021635;+031,90;+101,17
-00,158;+00,101;-00,123;-03,4570;+00,5950;-08,9190;-00,644308;-01,577320;-00,081129;+031,90;+101,17
-00,158;+00,101;-00,121;-04,1190;+00,2700;-09,6760;-00,556679;-01,996985;-00,077928;+031,90;+101,18
-00,158;+00,103;-00,116;-02,7730;-00,3560;-10,5100;-00,611183;-02,778314;-00,099914;+031,90;+101,18
-00,159;+00,102;-00,107;-02,9880;-01,6070;-11,1570;-00,776169;-03,657862;-00,056588;+031,90;+101,17
-00,161;+00,103;-00,101;-01,1560;-01,1940;-13,2540;-01,080439;-04,911295;+00,128406;+031,90;+101,18
-00,159;+00,101;-00,087;-03,9800;-02,4390;-23,1800;-01,215029;-06,208952;+00,280095;+031,90;+101,18
-00,157;+00,103;-00,079;-13,9920;+00,7960;-24,3840;-01,739932;-06,849901;+00,457754;+031,90;+101,18
-00,156;+00,104;-00,061;-09,7170;+03,3980;-40,3950;-02,237367;-04,314719;+00,736692;+031,90;+101,17
-00,153;+00,104;-00,057;-57,5390;+06,5050;-32,2880;-01,182357;-03,764284;+00,356989;+031,90;+101,18
-00,151;+00,101;-00,046;-19,4060;+08,4240;-29,7680;-00,409562;-00,911071;+01,108592;+031,90;+101,18
-00,149;+00,105;-00,048;-17,1460;+07,5200;-16,2720;+00,291989;-00,578984;+01,472008;+031,90;+101,18
-00,145;+00,108;-00,044;-14,1720;+05,7090;-10,2140;+00,436934;-00,682418;+02,118461;+031,90;+101,17
-00,143;+00,111;-00,046;-14,7870;+01,4170;-11,6480;+00,121034;-00,706055;+02,411475;+031,90;+101,18
-00,140;+00,117;-00,041;-14,8280;-01,1630;-13,5170;-00,091371;-00,306250;+02,410807;+031,90;+101,17
-00,137;+00,120;-00,040;-12,4350;-03,0880;-11,7540;-00,121873;+00,095398;+02,063421;+031,90;+101,17
-00,133;+00,120;-00,040;-09,3100;-03,9330;-08,1070;-00,140432;+00,304188;+01,606225;+031,90;+101,18
-00,132;+00,124;-00,042;-06,8210;-03,6080;-06,1770;-00,165216;+00,350926;+01,119972;+031,90;+101,17
-00,131;+00,124;-00,043;-06,0190;-02,2690;-05,9810;-00,073748;+00,404137;+00,625963;+031,90;+101,17
-00,130;+00,124;-00,042;-05,0790;-00,8880;-05,1330;+00,043986;+00,542054;+00,250704;+031,90;+101,17
-00,128;+00,122;-00,044;-03,3560;+00,0110;-03,0290;+00,056238;+00,672838;+00,027318;+031,90;+101,17
-00,130;+00,125;-00,045;-01,7030;+01,2330;-00,9370;+00,020801;+00,669331;-00,072872;+031,90;+101,17
-00,129;+00,125;-00,045;-00,9610;+01,8270;+00,4100;+00,085225;+00,650628;-00,135274;+031,90;+101,17
-00,131;+00,126;-00,049;-00,2960;+01,4600;+01,6930;+00,182522;+00,612866;-00,193686;+031,90;+101,17
-00,132;+00,122;-00,045;+00,2030;+01,1150;+02,6530;+00,275603;+00,575686;-00,270806;+031,90;+101,18
-00,132;+00,125;-00,048;+00,2280;+01,1600;+03,1300;+00,385941;+00,558048;-00,349172;+031,90;+101,17
-00,133;+00,122;-00,050;+00,2920;+00,8770;+03,9020;+00,490945;+00,589670;-00,426939;+031,90;+101,17
-00,133;+00,126;-00,049;+00,5600;+00,6170;+05,0950;+00,551995;+00,575774;-00,505425;+031,90;+101,17
-00,134;+00,122;-00,051;+00,8980;+00,2360;+05,9850;+00,539287;+00,493289;-00,566922;+031,90;+101,18
-00,136;+00,125;-00,055;+00,9910;+00,0030;+06,5350;+00,495536;+00,378012;-00,645466;+031,90;+101,17
-00,136;+00,122;-00,050;+01,1490;-00,0260;+06,9340;+00,424352;+00,222619;-00,714726;+031,90;+101,17
-00,138;+00,122;-00,054;+00,9010;-00,1290;+06,7830;+00,358743;+00,074162;-00,775573;+031,90;+101,17
-00,139;+00,118;-00,055;+00,9170;-00,3630;+06,7600;+00,287268;-00,037784;-00,865970;+031,90;+101,17
-00,140;+00,119;-00,054;+01,3190;-00,0260;+07,4400;+00,186982;-00,151104;-00,956997;+031,90;+101,17
-00,141;+00,114;-00,055;+01,6690;+01,1040;+07,9660;+00,084951;-00,311962;-00,973166;+031,90;+101,18
-00,141;+00,117;-00,055;+01,5420;+02,5260;+07,7030;+00,096815;-00,514827;-00,886017;+031,90;+101,16
-00,142;+00,111;-00,053;+00,6030;+03,4030;+05,5090;+00,225351;-00,690586;-00,725707;+031,90;+101,17
-00,144;+00,114;-00,054;-00,4320;+03,6050;+03,0860;+00,401221;-00,666200;-00,567095;+031,90;+101,16
-00,143;+00,110;-00,052;-00,8210;+03,1960;+02,6320;+00,494250;-00,531789;-00,384327;+031,90;+101,17
-00,143;+00,113;-00,055;-00,7040;+02,2090;+03,2260;+00,458710;-00,455796;-00,200072;+031,90;+101,17
-00,144;+00,111;-00,054;-00,9350;+01,1330;+03,7350;+00,356075;-00,416560;-00,095791;+031,90;+101,17
-00,145;+00,113;-00,055;-01,4100;+00,3800;+02,9180;+00,244738;-00,369976;-00,066825;+031,90;+101,16
-00,144;+00,111;-00,052;-02,1300;+00,7010;+01,4430;+00,254377;-00,228955;-00,110977;+031,90;+101,18
-00,144;+00,112;-00,055;-02,4480;+01,6270;+00,8670;+00,381389;-00,059641;-00,135576;+031,90;+101,17
-00,145;+00,111;-00,053;-02,5900;+02,4980;+00,4270;+00,514975;-00,003170;-00,067376;+031,90;+101,17
-00,143;+00,112;-00,056;-02,8410;+02,8780;-00,2730;+00,598791;+00,020386;+00,074488;+031,90;+101,16
-00,145;+00,114;-00,055;-03,1940;+02,5300;-01,8210;+00,641846;+00,023909;+00,217227;+031,90;+101,18
-00,143;+00,112;-00,058;-03,6320;+01,8080;-03,3630;+00,666324;+00,048319;+00,297005;+031,90;+101,18
-00,143;+00,115;-00,056;-03,9190;+00,8360;-04,8670;+00,651858;+00,114323;+00,306358;+031,90;+101,17
-00,142;+00,114;-00,060;-03,9830;-00,2520;-06,1870;+00,605061;+00,203268;+00,252586;+031,90;+101,17
-00,143;+00,116;-00,060;-04,5810;-00,8390;-07,8250;+00,581659;+00,287123;+00,158155;+031,90;+101,17
-00,142;+00,118;-00,063;-06,1940;-02,2320;-09,7700;+00,547060;+00,415282;-00,020768;+031,90;+101,17
-00,144;+00,116;-00,061;-08,0320;-03,4780;-11,7840;+00,499042;+00,570672;-00,302076;+031,90;+101,17
-00,144;+00,118;-00,065;-10,2640;-03,1720;-13,3040;+00,456572;+00,819282;-00,675073;+031,90;+101,18
-00,144;+00,114;-00,066;-12,4240;-02,4030;-14,5260;+00,340052;+01,095645;-00,961381;+031,90;+101,17
-00,146;+00,113;-00,072;-13,3200;-01,8040;-14,0690;+00,046604;+01,385783;-01,101655;+031,90;+101,18
-00,150;+00,111;-00,071;-12,9210;-00,2310;-13,1970;-00,249673;+01,501001;-01,114967;+031,90;+101,18
-00,150;+00,110;-00,076;-13,1810;+01,0920;-14,0900;-00,373750;+01,497879;-01,042185;+031,90;+101,16
-00,152;+00,108;-00,076;-12,9280;+01,4110;-15,2220;-00,332695;+01,604287;-00,942405;+031,90;+101,17
-00,153;+00,107;-00,081;-12,4900;+00,9650;-15,9280;-00,283758;+01,753450;-00,832701;+031,90;+101,18
-00,155;+00,106;-00,087;-11,8400;+00,5720;-15,2950;-00,267890;+01,902012;-00,733628;+031,90;+101,17
-00,156;+00,106;-00,088;-09,8000;+00,7540;-12,9520;-00,245758;+01,983023;-00,583405;+031,90;+101,17
-00,156;+00,105;-00,089;-07,7570;+00,9460;-09,4760;-00,134513;+01,832727;-00,411400;+031,90;+101,18
-00,157;+00,105;-00,094;-78,9090;-26,3490;-51,0100;-04,539150;+04,726817;+00,613291;+031,90;+101,18
-00,157;+00,104;-00,104;+20,5290;-12,4520;-15,4370;-00,071030;+04,047890;-00,477333;+031,90;+101,17
-00,159;+00,106;-00,112;-04,9210;-00,6570;-07,9160;-00,790755;+04,253697;-00,418550;+031,90;+101,18
-00,156;+00,104;-00,118;+01,0800;-01,5320;-11,7970;+00,130257;+03,004263;-00,186035;+031,90;+101,18
-00,157;+00,105;-00,121;+03,5640;+00,7270;-10,7710;+00,371267;+02,057422;+00,200202;+031,90;+101,18
-00,157;+00,105;-00,125;-00,9000;+00,1570;-08,8510;+00,694398;+01,016898;+00,326616;+031,90;+101,17
-00,156;+00,106;-00,128;+00,0260;+01,3150;-06,7540;+00,407204;+00,869291;+00,216811;+031,90;+101,18
-00,156;+00,104;-00,129;-08,9640;-00,8850;-11,4070;+00,221255;+00,659334;+00,015929;+031,90;+101,18
-00,155;+00,104;-00,134;-01,7240;+01,9570;-09,7150;+00,129885;+00,368861;-00,133231;+031,90;+101,18
-00,155;+00,106;-00,131;-01,3800;-00,1620;-08,5120;+00,040417;+00,029755;-00,075540;+031,90;+101,17
-00,155;+00,105;-00,134;-02,9870;+00,5440;-08,7940;-00,014835;-00,062160;-00,053519;+031,90;+101,18
-00,154;+00,103;-00,132;-04,1950;+00,3070;-09,2160;+00,053195;-00,028465;-00,101198;+031,90;+101,18
-00,156;+00,107;-00,133;-04,2400;-00,2860;-09,0100;+00,061497;+00,020246;-00,101899;+031,90;+101,17
-00,156;+00,104;-00,131;-03,9970;-00,5120;-08,8320;+00,044049;+00,060518;-00,077360;+031,90;+101,18
-00,154;+00,105;-00,133;-03,8510;-00,4500;-08,7950;+00,016913;+00,117942;-00,036982;+031,90;+101,18
-00,154;+00,104;-00,130;-03,8110;-00,4060;-08,8570;+00,001546;+00,162895;-00,006037;+031,90;+101,17
-00,155;+00,103;-00,135;-03,4590;+00,0890;-08,8340;-00,003875;+00,168643;+00,000971;+031,90;+101,17
-00,155;+00,104;-00,133;-03,2650;+00,2540;-09,0260;+00,003798;+00,116435;-00,016315;+031,90;+101,17
-00,156;+00,107;-00,133;-03,3160;+00,1840;-09,1760;+00,034107;+00,036656;-00,037697;+031,90;+101,17
-00,154;+00,103;-00,133;-03,5700;+00,0420;-09,1670;+00,064544;-00,008338;-00,051885;+031,90;+101,17
-00,155;+00,104;-00,135;-03,7080;-00,1240;-09,0770;+00,084209;-00,009585;-00,048339;+031,90;+101,18
-00,154;+00,102;-00,134;-03,5700;-00,1720;-09,0460;+00,116710;-00,038736;-00,041953;+031,90;+101,18
-00,156;+00,106;-00,136;-03,5540;-00,1840;-08,9600;+00,131248;-00,045928;-00,025331;+031,90;+101,17
-00,155;+00,103;-00,134;-03,6310;-00,1810;-08,9480;+00,129113;-00,041254;-00,013274;+031,90;+101,17
-00,156;+00,104;-00,135;-03,7960;-00,0720;-08,9500;+00,115520;-00,010070;-00,014908;+031,90;+101,17
-00,154;+00,104;-00,134;-03,7020;-00,0250;-08,9070;+00,090774;+00,029843;-00,021561;+031,90;+101,18
-00,155;+00,103;-00,136;-03,6010;-00,0040;-09,0440;+00,082418;+00,045080;-00,035579;+031,90;+101,17
-00,156;+00,104;-00,135;-03,6340;-00,0660;-09,0230;+00,087811;+00,050547;-00,050981;+031,90;+101,18
-00,155;+00,103;-00,136;-03,5360;-00,1710;-08,9200;+00,082506;+00,051025;-00,053735;+031,90;+101,17
-00,155;+00,102;-00,132;-03,4630;-00,1610;-08,9660;+00,082037;+00,032935;-00,051623;+031,90;+101,18
-00,155;+00,104;-00,134;-03,6190;-00,2350;-08,9470;+00,075949;+00,029811;-00,046628;+031,90;+101,17
-00,156;+00,102;-00,133;-03,5780;-00,2420;-08,8140;+00,052669;+00,048703;-00,035653;+031,90;+101,17
-00,156;+00,104;-00,135;-03,3420;-00,3840;-08,5800;+00,015477;+00,056052;-00,024226;+031,90;+101,17
-00,155;+00,104;-00,135;-03,4350;-00,3160;-08,7550;-00,009423;+00,046361;-00,010638;+031,90;+101,17
-00,155;+00,103;-00,138;-03,5500;-00,2150;-08,8580;-00,013682;+00,036981;-00,006437;+031,90;+101,17
-00,155;+00,104;-00,136;-03,4650;-00,2490;-08,7720;-00,028581;+00,045695;-00,006337;+031,90;+101,17
-00,156;+00,102;-00,137;-03,3960;-00,2630;-08,7190;-00,053794;+00,038355;-00,000723;+031,90;+101,18
-00,154;+00,102;-00,132;-03,3930;-00,2990;-08,6770;-00,084696;+00,038648;+00,010190;+031,90;+101,16
-00,155;+00,103;-00,134;-03,5220;-00,2570;-08,7750;-00,114244;+00,049050;+00,019686;+031,90;+101,18
-00,154;+00,103;-00,135;-03,4980;-00,2190;-08,7770;-00,153960;+00,070927;+00,027212;+031,90;+101,17
-00,155;+00,106;-00,137;-03,5300;-00,1780;-09,0990;-00,153267;+00,077341;+00,035103;+031,90;+101,18
-00,154;+00,103;-00,135;-03,6090;+00,0880;-09,1330;-00,114115;+00,048898;+00,024567;+031,90;+101,16
-00,155;+00,104;-00,135;-03,4560;-00,1220;-08,9100;-00,095734;+00,031430;+00,018215;+031,90;+101,17
-00,155;+00,104;-00,132;-03,4550;-00,0560;-08,8810;-00,081581;+00,017524;+00,016133;+031,90;+101,17
-00,155;+00,104;-00,136;-03,4580;-00,1760;-08,8480;-00,065097;+00,009965;+00,011898;+031,90;+101,18
-00,155;+00,105;-00,136;-03,4530;-00,0770;-08,9340;-00,055728;+00,001215;+00,014693;+031,90;+101,18
-00,154;+00,104;-00,137;-03,3520;-00,0220;-08,8980;-00,047001;-00,025694;+00,011483;+031,90;+101,18
-00,155;+00,103;-00,134;-03,3420;+00,1000;-08,8190;-00,041381;-00,050469;+00,007148;+031,90;+101,17
-00,155;+00,105;-00,135;-03,3360;-00,1220;-08,8670;-00,047475;-00,094588;+00,002532;+031,90;+101,17
-00,155;+00,104;-00,134;-03,4560;-00,0200;-08,9730;-00,047148;-00,122623;+00,001552;+031,90;+101,18
-00,155;+00,106;-00,133;-03,4300;-00,1820;-08,9410;-00,034173;-00,150803;+00,004926;+031,90;+101,17
-00,156;+00,103;-00,133;-03,6460;-00,1910;-08,9720;-00,013534;-00,154849;+00,012946;+031,90;+101,16
-00,155;+00,106;-00,136;-03,6560;+00,4900;-08,9870;-00,033609;-00,175407;+00,005878;+031,90;+101,17
-00,155;+00,105;-00,133;-03,5990;-00,1770;-08,9700;-00,010541;-00,163108;+00,008027;+031,90;+101,18
-00,155;+00,106;-00,134;-03,8220;+00,1270;-09,0640;-00,014275;-00,144105;+00,006661;+031,90;+101,17
-00,154;+00,104;-00,132;-03,6410;-00,1460;-08,9240;-00,012147;-00,131706;-00,000752;+031,90;+101,18
-00,155;+00,104;-00,133;-03,6300;-00,0640;-08,9260;-00,001566;-00,122973;+00,006285;+031,90;+101,17
-00,154;+00,105;-00,132;-03,6750;-00,1690;-08,9250;+00,010746;-00,124106;+00,010955;+031,90;+101,17
-00,156;+00,107;-00,131;-03,7160;-00,0650;-08,9110;+00,015491;-00,110007;+00,011095;+031,90;+101,17
-00,154;+00,106;-00,131;-03,7170;-00,0660;-08,9310;+00,016867;-00,103256;+00,008758;+031,90;+101,17
-00,156;+00,104;-00,133;-03,6460;+00,0130;-08,8680;+00,024913;-00,095145;+00,006290;+031,90;+101,17
-00,154;+00,104;-00,131;-03,8180;+00,1220;-08,9610;+00,025917;-00,085594;-00,000062;+031,90;+101,17
-00,155;+00,107;-00,130;-03,7940;-00,0310;-08,9130;+00,023444;-00,065924;-00,002509;+031,90;+101,17
-00,156;+00,105;-00,131;-03,8550;-00,0680;-08,8920;+00,021073;-00,041984;-00,002476;+031,90;+101,17
-00,156;+00,107;-00,133;-03,7450;-00,1680;-08,8880;+00,026007;-00,029873;+00,001004;+031,90;+101,17
-00,155;+00,104;-00,129;-03,6590;-00,1800;-08,8140;+00,044135;-00,027747;+00,015329;+031,90;+101,18
-00,155;+00,108;-00,133;-03,7110;-00,0070;-08,8730;+00,049324;-00,027925;+00,014615;+031,90;+101,17
-00,154;+00,103;-00,130;-03,6870;-00,0160;-08,8470;+00,050423;-00,025721;+00,008770;+031,90;+101,17
-00,155;+00,107;-00,132;-03,6480;-00,0570;-08,8860;+00,048438;-00,032274;+00,008713;+031,90;+101,18
-00,155;+00,103;-00,133;-03,5960;-00,0010;-08,8270;+00,042172;-00,042207;+00,006887;+031,90;+101,18
-00,155;+00,108;-00,131;-03,6090;-00,0800;-08,7860;+00,040165;-00,053164;+00,011045;+031,90;+101,17
-00,155;+00,106;-00,129;-03,5230;-00,0770;-08,8210;+00,042188;-00,071670;+00,016211;+031,90;+101,17
-00,155;+00,106;-00,131;-03,4860;-00,1590;-08,7380;+00,050454;-00,085632;+00,031366;+031,90;+101,18
-00,155;+00,104;-00,130;-03,2540;-00,1590;-08,7370;+00,059213;-00,133420;+00,048738;+031,90;+101,18
-00,155;+00,106;-00,130;-03,2220;-00,1200;-08,8050;+00,058604;-00,239227;+00,061585;+031,90;+101,17
-00,155;+00,105;-00,131;-03,2730;-00,1180;-08,7880;-00,021933;-00,397209;+00,051974;+031,90;+101,17
-00,155;+00,106;-00,128;-03,8270;+00,0460;-09,0640;-00,074911;-00,582311;+00,040333;+031,90;+101,17
-00,156;+00,107;-00,125;-03,2820;+00,2020;-08,8150;-00,187133;-00,851355;+00,039560;+031,90;+101,17
-00,155;+00,106;-00,127;-03,4950;+00,3130;-08,5050;-00,493874;-01,298731;-00,016583;+031,90;+101,17
-00,157;+00,104;-00,121;-02,8400;-00,1920;-09,3940;-00,902045;-01,849369;-00,074805;+031,90;+101,18
-00,156;+00,108;-00,119;-03,4060;-00,4270;-09,8300;-01,014029;-02,448971;-00,055443;+031,90;+101,16
-00,156;+00,105;-00,109;-02,4610;-00,3370;-10,5140;-01,312056;-03,125300;-00,044850;+031,90;+101,17
-00,158;+00,108;-00,106;-01,2780;-01,7410;-12,0540;-01,466723;-04,084758;+00,086814;+031,90;+101,18
-00,157;+00,108;-00,091;-04,5060;-02,5020;-15,9850;-01,857625;-05,131971;+00,351356;+031,90;+101,18
-00,156;+00,110;-00,086;-05,4210;+00,4650;-27,1530;-02,127472;-05,689515;+00,456428;+031,90;+101,18
-00,153;+00,109;-00,068;-16,9460;+02,4260;-27,4560;-02,917005;-05,219895;+00,496062;+031,90;+101,18
-00,152;+00,109;-00,059;-05,6600;+03,2500;-23,4790;-01,994037;-04,376052;+01,565998;+031,90;+101,18
-00,147;+00,109;-00,047;-47,2070;+19,9720;-39,3010;-01,512392;-01,976138;+01,301683;+031,90;+101,17
-00,146;+00,111;-00,050;-13,8590;+17,3500;-28,3550;+00,246846;-00,757387;+01,797953;+031,90;+101,17
-00,141;+00,112;-00,044;-12,7350;+11,0080;-13,0330;+00,764927;-00,416999;+02,614825;+031,90;+101,18
-00,139;+00,117;-00,044;-15,1100;+03,3970;-13,5330;+00,504918;-00,819014;+02,999895;+031,90;+101,18
-00,133;+00,123;-00,041;-17,6840;-02,5500;-17,7140;-00,069267;-00,426821;+02,937118;+031,90;+101,18
-00,129;+00,126;-00,042;-15,9240;-04,6820;-15,8670;-00,336303;+00,248047;+02,461554;+031,90;+101,17
-00,126;+00,127;-00,041;-12,1490;-05,2220;-10,4390;-00,360608;+00,624355;+01,780143;+031,90;+101,17
-00,125;+00,131;-00,043;-08,9850;-04,8550;-05,7110;-00,262824;+00,628729;+01,053782;+031,90;+101,17
-00,123;+00,130;-00,042;-07,1560;-04,0310;-03,7350;-00,143570;+00,491327;+00,434372;+031,90;+101,18
-00,123;+00,133;-00,044;-05,8450;-02,8910;-03,1290;-00,055890;+00,475914;-00,058004;+031,90;+101,17
-00,124;+00,130;-00,044;-04,5020;-01,1990;-02,1380;+00,005134;+00,546561;-00,419916;+031,90;+101,17
-00,124;+00,132;-00,043;-02,7560;+00,6000;-00,7270;+00,092209;+00,616116;-00,600608;+031,90;+101,17
-00,125;+00,127;-00,047;-01,8960;+02,1260;+00,2290;+00,153318;+00,670561;-00,632305;+031,90;+101,15
-00,127;+00,129;-00,048;-00,8110;+03,0630;+01,2030;+00,228590;+00,720912;-00,541895;+031,90;+101,16
-00,127;+00,127;-00,047;-00,0130;+02,6640;+02,9080;+00,293312;+00,743571;-00,421684;+031,90;+101,17
-00,129;+00,129;-00,046;+00,9520;+02,0250;+05,1460;+00,331739;+00,709459;-00,441302;+031,90;+101,17
-00,130;+00,129;-00,051;+00,5550;+01,5670;+03,7260;+00,419670;+00,624886;-00,357131;+031,90;+101,17
-00,131;+00,129;-00,051;-00,5310;+01,7830;+02,1480;+00,407867;+00,680265;-00,355560;+031,90;+101,17
-00,131;+00,126;-00,053;-00,6320;+02,3530;+02,8300;+00,389950;+00,808456;-00,308149;+031,90;+101,17
-00,131;+00,128;-00,052;+00,1600;+02,9170;+05,5810;+00,249948;+00,787783;-00,143458;+031,90;+101,17
-00,131;+00,127;-00,055;+00,5520;+03,2810;+07,3180;+00,116367;+00,587800;+00,059751;+031,90;+101,17
-00,132;+00,128;-00,057;-00,2260;+02,6670;+06,8140;+00,087984;+00,384195;+00,208981;+031,90;+101,17
-00,131;+00,128;-00,056;-00,8570;+01,0380;+06,4390;+00,071399;+00,285709;+00,245642;+031,90;+101,17
-00,133;+00,129;-00,056;-00,7650;-00,6400;+07,1740;+00,013117;+00,188489;+00,157611;+031,90;+101,17
-00,131;+00,127;-00,056;-00,2280;-01,4930;+08,5530;-00,060357;+00,011577;-00,028320;+031,90;+101,16
-00,130;+00,128;-00,057;-00,0110;-01,1430;+09,0910;-00,054812;-00,249979;-00,255255;+031,90;+101,17
-00,132;+00,127;-00,058;-00,1550;-00,1670;+08,0710;+00,055415;-00,527943;-00,421327;+031,90;+101,17
-00,132;+00,128;-00,056;-01,6140;+00,5440;+04,9630;+00,167481;-00,629623;-00,500611;+031,90;+101,18
-00,132;+00,124;-00,053;-02,5850;+00,7230;+02,3350;+00,250506;-00,487820;-00,554487;+031,90;+101,17
-00,133;+00,127;-00,056;-01,8980;+00,7650;+03,0260;+00,182003;-00,302188;-00,519713;+031,90;+101,17
-00,134;+00,123;-00,056;-00,8890;+01,2420;+04,7640;+00,030561;-00,288458;-00,406844;+031,90;+101,17
-00,134;+00,125;-00,056;-00,6030;+01,2570;+05,1760;-00,013931;-00,387534;-00,304445;+031,90;+101,17
-00,134;+00,124;-00,052;-00,8100;+00,4300;+04,3060;+00,054597;-00,476020;-00,291959;+031,90;+101,17
-00,134;+00,125;-00,051;-00,7790;+00,1020;+03,6970;+00,213903;-00,538871;-00,364059;+031,90;+101,17
-00,134;+00,123;-00,052;-00,7620;+00,3710;+03,1300;+00,418548;-00,639390;-00,448451;+031,90;+101,17
-00,135;+00,122;-00,053;-01,2880;+00,1280;+01,7180;+00,593309;-00,789739;-00,491716;+031,90;+101,16
-00,134;+00,119;-00,051;-02,2510;+00,7250;-00,2680;+00,794274;-00,865450;-00,539430;+031,90;+101,17
-00,136;+00,123;-00,053;-03,1360;+01,5570;-01,3870;+01,054553;-00,873373;-00,546233;+031,90;+101,17
-00,136;+00,120;-00,052;-03,5330;+01,3650;-02,1200;+01,235821;-00,866223;-00,469799;+031,90;+101,16
-00,136;+00,123;-00,053;-04,6710;+00,4890;-04,9280;+01,194395;-00,825511;-00,359512;+031,90;+101,17
-00,136;+00,122;-00,054;-06,7130;-01,7270;-09,4350;+01,010554;-00,560810;-00,329938;+031,90;+101,18
-00,136;+00,122;-00,056;-08,2490;-04,6110;-12,5430;+00,775088;-00,106816;-00,452429;+031,90;+101,16
-00,137;+00,123;-00,053;-08,7690;-05,5740;-13,7560;+00,625099;+00,316683;-00,824688;+031,90;+101,18
-00,139;+00,120;-00,058;-08,3070;-06,2850;-11,6360;+00,517680;+00,709932;-01,313061;+031,90;+101,17
-00,142;+00,117;-00,059;-07,4500;-05,2970;-08,6760;+00,362110;+00,831941;-01,765393;+031,90;+101,17
-00,145;+00,115;-00,061;-07,4360;-02,7090;-07,9710;+00,325099;+00,721689;-02,111477;+031,90;+101,18
-00,148;+00,109;-00,064;-07,9000;+00,3680;-09,2710;+00,384871;+00,627993;-02,253877;+031,90;+101,17
-00,149;+00,109;-00,066;-08,7730;+03,5490;-11,1900;+00,494009;+00,589090;-02,114988;+031,90;+101,17
-00,153;+00,104;-00,067;-11,0260;+04,9010;-15,4460;+00,555900;+00,662080;-01,719887;+031,90;+101,16
-00,154;+00,106;-00,070;-13,2370;+05,2610;-18,9910;+00,558674;+00,994803;-01,219401;+031,90;+101,18
-00,157;+00,102;-00,074;-12,8900;+05,5250;-18,9650;+00,466310;+01,392010;-00,659144;+031,90;+101,17
-00,157;+00,102;-00,075;-11,2310;+05,0910;-16,7200;+00,441470;+01,667291;-00,023797;+031,90;+101,17
-00,158;+00,103;-00,083;-09,5140;-17,1940;-78,7140;-01,761112;+09,049527;+00,577950;+031,90;+101,18
-00,158;+00,104;-00,095;-10,9200;+00,2370;-35,4690;-00,933441;+06,643314;+00,735591;+031,90;+101,18
-00,157;+00,103;-00,106;+00,2150;+03,2650;-08,2060;-00,246005;+04,133432;-00,197841;+031,90;+101,17
-00,157;+00,106;-00,110;+00,5460;-02,1600;-17,5980;+00,009277;+04,055177;-00,042824;+031,90;+101,18
-00,157;+00,106;-00,116;+05,7280;+02,4740;-09,8490;+00,171622;+02,600153;+00,237891;+031,90;+101,17
-00,156;+00,106;-00,119;-03,0290;-00,5150;-09,1500;+00,739411;+01,239436;+00,376770;+031,90;+101,17
-00,155;+00,105;-00,122;-03,7420;+00,0080;-09,3880;+00,539243;+00,939997;+00,362382;+031,90;+101,18
-00,154;+00,107;-00,128;-03,4490;+01,7170;-09,1470;+00,414842;+00,808462;+00,232914;+031,90;+101,18
-00,155;+00,107;-00,126;-02,1650;+00,9800;-07,8960;+00,276914;+00,574839;+00,052290;+031,90;+101,16
-00,155;+00,106;-00,130;-05,5360;-00,6950;-09,1960;+00,130775;+00,440263;-00,075109;+031,90;+101,17
-00,155;+00,106;-00,127;-02,6950;+00,9370;-09,0170;+00,063648;+00,331386;-00,138395;+031,90;+101,16
-00,154;+00,106;-00,131;-02,9150;+00,0830;-08,6690;-00,011878;+00,149814;-00,109795;+031,90;+101,18
-00,152;+00,105;-00,132;-03,5890;+00,0240;-08,8070;-00,049062;+00,081659;-00,092518;+031,90;+101,17
-00,153;+00,106;-00,130;-03,9040;-00,1430;-08,8630;-00,047916;+00,077463;-00,080832;+031,90;+101,18
-00,154;+00,104;-00,129;-04,0530;-00,3460;-08,8860;-00,048637;+00,104580;-00,063599;+031,90;+101,18
-00,154;+00,105;-00,133;-03,9470;-00,3960;-08,9660;-00,018438;+00,131089;-00,030435;+031,90;+101,16
-00,154;+00,106;-00,131;-03,5360;-00,2210;-08,9400;+00,002786;+00,115447;+00,002637;+031,90;+101,17
-00,154;+00,106;-00,128;-03,4290;-00,1200;-08,8780;+00,003650;+00,061683;+00,017413;+031,90;+101,18
-00,153;+00,106;-00,133;-03,6230;-00,0250;-08,9370;+00,005207;+00,032586;+00,021295;+031,90;+101,17
-00,154;+00,107;-00,132;-03,7710;+00,3370;-09,1220;-00,008644;-00,020301;-00,000584;+031,90;+101,16
-00,154;+00,105;-00,131;-03,7330;-00,0180;-08,8800;-00,015886;-00,036592;-00,014348;+031,90;+101,18
-00,155;+00,106;-00,130;-03,6800;-00,0020;-08,8700;-00,019794;-00,044893;-00,014479;+031,90;+101,17
-00,154;+00,105;-00,131;-03,8460;-00,0380;-08,9280;-00,030075;-00,051862;-00,017153;+031,90;+101,18
-00,155;+00,108;-00,131;-03,7760;-00,0430;-08,9010;-00,032807;-00,049642;-00,015479;+031,90;+101,18
-00,154;+00,105;-00,131;-03,8050;-00,0400;-08,9120;-00,035112;-00,043901;-00,011855;+031,90;+101,18
-00,155;+00,105;-00,132;-03,8460;-00,0270;-08,9160;-00,035063;-00,036204;-00,011802;+031,90;+101,17
-00,154;+00,105;-00,132;-03,6780;-00,0400;-08,8100;-00,036510;-00,030285;-00,010165;+031,90;+101,18
-00,154;+00,106;-00,132;-03,6230;-00,0720;-08,8260;-00,035157;-00,041690;-00,004043;+031,90;+101,17
-00,154;+00,105;-00,128;-03,7320;-00,0170;-08,8860;-00,033106;-00,048270;+00,001525;+031,90;+101,18
-00,154;+00,106;-00,130;-03,7940;+00,0350;-08,8920;-00,041296;-00,051073;-00,002901;+031,90;+101,17
-00,153;+00,106;-00,129;-03,7590;-00,0400;-08,8460;-00,041470;-00,045296;+00,002864;+031,90;+101,18
-00,154;+00,107;-00,129;-03,7200;-00,0430;-08,8160;-00,034901;-00,039082;+00,008261;+031,90;+101,17
-00,153;+00,104;-00,128;-03,7590;-00,0790;-08,8300;-00,028964;-00,033026;+00,013304;+031,90;+101,17
-00,154;+00,107;-00,129;-03,7810;-00,1010;-08,8090;-00,025727;-00,033217;+00,021702;+031,90;+101,16
-00,154;+00,106;-00,129;-03,6960;-00,0870;-08,7340;-00,014216;-00,028920;+00,025125;+031,90;+101,18
-00,154;+00,107;-00,131;-03,6220;-00,0080;-08,7700;-00,003287;-00,047855;+00,030569;+031,90;+101,17
-00,154;+00,104;-00,130;-03,7590;+00,0340;-08,8440;+00,007720;-00,059952;+00,031142;+031,90;+101,17
-00,153;+00,107;-00,128;-03,8090;+00,0560;-08,8030;+00,012153;-00,059153;+00,023567;+031,90;+101,18
-00,154;+00,105;-00,129;-03,7670;-00,0530;-08,8080;+00,022629;-00,058848;+00,022132;+031,90;+101,17
-00,153;+00,108;-00,129;-03,7720;+00,1210;-08,7880;+00,027673;-00,061451;+00,018712;+031,90;+101,17
-00,153;+00,106;-00,128;-03,9310;+00,0760;-08,9010;+00,018704;-00,051325;+00,010648;+031,90;+101,17
-00,154;+00,106;-00,129;-03,8250;+00,0750;-08,8680;+00,011938;-00,044122;+00,005724;+031,90;+101,17
-00,153;+00,107;-00,129;-03,7670;-00,0440;-08,8340;+00,009533;-00,057089;+00,008126;+031,90;+101,17
-00,154;+00,107;-00,127;-03,7910;+00,0250;-08,7760;+00,020007;-00,061538;+00,015737;+031,90;+101,18
-00,153;+00,106;-00,130;-03,7910;-00,0830;-08,8080;+00,027992;-00,060012;+00,020252;+031,90;+101,18
-00,154;+00,107;-00,127;-03,9150;+00,0030;-08,8240;+00,028031;-00,050583;+00,021121;+031,90;+101,18
-00,153;+00,105;-00,126;-03,9110;+00,0620;-08,8500;+00,021623;-00,038969;+00,013135;+031,90;+101,17
-00,153;+00,107;-00,129;-03,8660;+00,0370;-08,7920;+00,017657;-00,034898;+00,004769;+031,90;+101,17
-00,154;+00,106;-00,129;-03,8960;+00,0810;-08,7790;+00,016695;-00,016715;-00,001887;+031,90;+101,17
-00,154;+00,109;-00,128;-03,8720;+00,0820;-08,7380;+00,016703;-00,010824;-00,009338;+031,90;+101,18
-00,153;+00,106;-00,131;-03,8400;+00,0760;-08,7360;+00,021247;+00,001287;-00,017062;+031,90;+101,17
-00,153;+00,110;-00,127;-03,8330;-00,0030;-08,7670;+00,023020;-00,008700;-00,019691;+031,90;+101,17
-00,154;+00,108;-00,126;-03,8970;+00,0260;-08,8810;+00,018231;-00,010391;-00,013602;+031,90;+101,19
-00,154;+00,107;-00,129;-03,9080;-00,1030;-08,8300;+00,023142;-00,008150;-00,012131;+031,90;+101,17
-00,154;+00,106;-00,127;-03,9080;+00,0110;-08,8180;+00,027016;-00,003751;-00,007759;+031,90;+101,17
-00,153;+00,108;-00,127;-03,8950;+00,0370;-08,8080;+00,024951;+00,003913;-00,012289;+031,90;+101,17
-00,154;+00,106;-00,127;-03,8380;+00,0080;-08,8410;+00,023419;+00,007595;-00,013130;+031,90;+101,17
-00,154;+00,106;-00,127;-03,8490;-00,0380;-08,8080;+00,025325;+00,005455;-00,010670;+031,90;+101,18
-00,154;+00,105;-00,129;-03,8230;+00,0060;-08,7970;+00,028753;+00,006316;-00,011076;+031,90;+101,17
-00,154;+00,108;-00,128;-03,8720;+00,0330;-08,7470;+00,035970;+00,016148;-00,012464;+031,90;+101,18
-00,153;+00,108;-00,127;-03,8210;-00,0170;-08,8090;+00,033425;+00,021091;-00,014931;+031,90;+101,16
-00,153;+00,107;-00,128;-03,8810;-00,0550;-08,8490;+00,028626;+00,021548;-00,013098;+031,90;+101,18
-00,153;+00,107;-00,128;-03,8760;-00,0340;-08,8360;+00,027108;+00,023019;-00,009782;+031,90;+101,18
-00,154;+00,106;-00,129;-03,8730;-00,0700;-08,8110;+00,030040;+00,023830;-00,008449;+031,90;+101,18
-00,153;+00,108;-00,128;-03,8310;-00,0910;-08,8240;+00,035878;+00,015059;-00,003928;+031,90;+101,17
-00,154;+00,107;-00,128;-03,8260;-00,0440;-08,7970;+00,045754;+00,007483;+00,001521;+031,90;+101,18
-00,154;+00,107;-00,128;-03,8450;-00,0710;-08,8450;+00,055787;+00,003252;+00,005202;+031,90;+101,17
-00,154;+00,107;-00,130;-03,8310;-00,0440;-08,7600;+00,063346;+00,003322;+00,007339;+031,90;+101,18
-00,154;+00,105;-00,127;-03,8320;-00,0010;-08,7170;+00,068846;+00,009591;+00,004633;+031,90;+101,18
-00,153;+00,108;-00,128;-03,7890;+00,0380;-08,6220;+00,073093;+00,019157;-00,000895;+031,90;+101,17
-00,154;+00,104;-00,130;-03,6920;+00,0030;-08,8820;+00,071979;+00,005251;-00,007505;+031,90;+101,18
-00,155;+00,110;-00,127;-03,3700;-00,2340;-08,7770;+00,082679;-00,055763;+00,006394;+031,90;+101,17
-00,153;+00,106;-00,130;-03,2220;-00,1460;-08,8980;+00,091156;-00,172903;+00,030445;+031,90;+101,17
-00,153;+00,109;-00,128;-03,1250;-00,0300;-08,7990;-00,004261;-00,312692;+00,032112;+031,90;+101,18
-00,154;+00,107;-00,129;-03,7670;-00,2530;-09,0920;-00,082774;-00,493625;+00,027197;+031,90;+101,17
-00,155;+00,109;-00,128;-04,2760;-00,7050;-09,2370;-00,237881;-00,705918;+00,012631;+031,90;+101,17
-00,154;+00,106;-00,125;-03,0300;+00,2850;-08,8080;-00,501925;-01,056610;+00,028107;+031,90;+101,18
-00,154;+00,108;-00,123;-03,1760;-00,1190;-08,7080;-00,903754;-01,489332;+00,084791;+031,90;+101,17
-00,154;+00,108;-00,118;-03,9170;+00,0640;-09,0900;-01,413855;-01,912723;+00,104700;+031,90;+101,18
-00,154;+00,110;-00,115;-03,5910;-00,6030;-09,7140;-01,717608;-02,367613;+00,214911;+031,90;+101,16
-00,154;+00,109;-00,107;-03,6410;-01,6950;-12,0310;-01,949564;-02,768669;+00,429189;+031,90;+101,17
-00,153;+00,110;-00,099;-03,4710;-01,1190;-13,6030;-02,172853;-03,108904;+00,680845;+031,90;+101,18
-00,153;+00,111;-00,088;-04,7220;-04,4390;-17,6890;-03,031407;-03,157532;+00,947305;+031,90;+101,18
-00,152;+00,115;-00,081;-06,0130;-01,9990;-22,6900;-02,993931;-03,398881;+01,435389;+031,90;+101,17
-00,148;+00,114;-00,069;-15,3880;+07,2060;-20,2590;-02,896722;-03,946142;+01,852905;+031,90;+101,17
-00,146;+00,117;-00,064;-28,2590;+17,7730;-35,1020;-01,228006;-01,935331;+01,260635;+031,90;+101,17
-00,142;+00,116;-00,057;-14,0660;+15,6100;-24,4050;+00,568249;-00,939298;+01,530839;+031,90;+101,17
-00,141;+00,120;-00,058;-09,5560;+09,9190;-08,9470;+01,532844;-00,854795;+02,167255;+031,90;+101,18
-00,136;+00,124;-00,057;-10,5640;+03,8570;-07,0350;+01,620900;-01,452286;+02,453766;+031,90;+101,17
-00,133;+00,129;-00,059;-14,3740;-01,4150;-13,6770;+01,428605;-01,454954;+02,364749;+031,90;+101,17
-00,128;+00,131;-00,058;-14,2960;-04,8170;-15,2840;+01,087648;-00,997963;+01,901467;+031,90;+101,18
-00,126;+00,135;-00,058;-11,9110;-05,5340;-12,2770;+00,710948;-00,679432;+01,275414;+031,90;+101,17
-00,124;+00,135;-00,053;-09,7620;-04,2760;-09,6810;+00,394451;-00,614572;+00,689761;+031,90;+101,17
-00,124;+00,137;-00,054;-09,1160;-02,2990;-09,8990;+00,171784;-00,587644;+00,230976;+031,90;+101,17
-00,123;+00,137;-00,054;-08,0330;+00,2460;-10,5260;+00,089657;-00,451880;-00,067536;+031,90;+101,17
-00,122;+00,138;-00,055;-06,6910;+02,8930;-09,9690;+00,115708;-00,268602;-00,175473;+031,90;+101,17
-00,122;+00,135;-00,052;-05,2970;+04,1370;-07,9530;+00,098078;-00,120007;-00,082857;+031,90;+101,18
-00,123;+00,139;-00,055;-04,0530;+04,5690;-05,7590;+00,045036;-00,050223;+00,085513;+031,90;+101,17
-00,122;+00,135;-00,055;-03,2290;+03,9840;-04,3260;-00,015641;-00,041411;+00,255650;+031,90;+101,17
-00,121;+00,137;-00,056;-03,0550;+03,8300;-03,9610;-00,000809;+00,015389;+00,349727;+031,90;+101,17
-00,122;+00,137;-00,053;-02,6550;+03,0370;-03,1000;+00,080122;+00,115898;+00,398190;+031,90;+101,17
-00,121;+00,142;-00,052;-01,5260;+01,8900;-00,7300;+00,125079;+00,189542;+00,396523;+031,90;+101,18
-00,121;+00,138;-00,051;-00,6310;+00,6270;+01,2390;+00,136288;+00,149080;+00,325592;+031,90;+101,17
-00,119;+00,140;-00,053;-00,2200;-00,6110;+02,0180;+00,145091;+00,114051;+00,152340;+031,90;+101,17
-00,120;+00,138;-00,055;-00,0240;-01,2760;+02,1380;+00,202011;+00,110904;-00,093611;+031,90;+101,16
-00,120;+00,140;-00,055;+00,3090;-01,4600;+02,7430;+00,299835;+00,143973;-00,366000;+031,90;+101,18
-00,120;+00,138;-00,056;+00,8800;-01,3930;+03,8390;+00,395183;+00,139699;-00,614037;+031,90;+101,17
-00,122;+00,141;-00,058;+01,0990;-00,9810;+03,8440;+00,727849;+00,089083;-00,807739;+031,90;+101,17
-00,123;+00,136;-00,056;+01,8230;-01,4240;+05,7070;+00,714533;-00,076588;-01,068115;+031,90;+101,16
-00,124;+00,137;-00,058;+01,6080;-00,8970;+05,4720;+00,649407;-00,256323;-01,172607;+031,90;+101,18
-00,126;+00,132;-00,056;+00,9790;+00,1830;+04,6050;+00,523819;-00,319574;-01,241146;+031,90;+101,16
-00,128;+00,132;-00,060;+00,9770;+01,4470;+04,3890;+00,410835;-00,317483;-01,195123;+031,90;+101,16
-00,128;+00,131;-00,056;+00,8890;+02,4480;+03,9660;+00,358468;-00,316496;-01,077601;+031,90;+101,18
-00,130;+00,128;-00,058;+00,6340;+03,2030;+02,7330;+00,343618;-00,294861;-00,885428;+031,90;+101,17
-00,132;+00,129;-00,056;-00,2600;+03,7090;+01,1160;+00,419236;-00,191648;-00,684981;+031,90;+101,17
-00,132;+00,128;-00,059;-00,5530;+03,2380;+01,0580;+00,494340;+00,017368;-00,525213;+031,90;+101,16
-00,133;+00,127;-00,058;-00,1050;+02,6500;+02,4500;+00,466545;+00,123608;-00,374523;+031,90;+101,17
-00,134;+00,127;-00,060;+00,1470;+02,5060;+03,2910;+00,395217;+00,100006;-00,261729;+031,90;+101,16
-00,134;+00,126;-00,061;-00,1160;+02,2000;+02,9030;+00,332000;+00,024807;-00,170061;+031,90;+101,17
-00,133;+00,126;-00,061;-00,6700;+01,7170;+01,7410;+00,318972;-00,006186;-00,129415;+031,90;+101,17
-00,134;+00,123;-00,062;-01,8270;+01,3780;+00,0850;+00,360592;+00,054841;-00,165026;+031,90;+101,17
-00,134;+00,126;-00,063;-02,3910;+00,7480;-00,3590;+00,409454;+00,192809;-00,245122;+031,90;+101,17
-00,134;+00,124;-00,065;-02,4880;-00,0060;-00,3550;+00,369512;+00,263331;-00,353914;+031,90;+101,17
-00,135;+00,125;-00,064;-03,0060;-00,4920;-00,8540;+00,287449;+00,291088;-00,501770;+031,90;+101,17
-00,135;+00,123;-00,067;-03,3070;-00,3030;-01,8270;+00,186814;+00,315254;-00,664068;+031,90;+101,18
-00,137;+00,124;-00,066;-03,9650;+00,9050;-03,3300;+00,172519;+00,338883;-00,753196;+031,90;+101,17
-00,139;+00,121;-00,067;-05,2340;+01,9980;-05,9730;+00,250364;+00,380743;-00,774366;+031,90;+101,17
-00,140;+00,122;-00,069;-06,5900;+01,4760;-08,0310;+00,322775;+00,517828;-00,761797;+031,90;+101,17
-00,140;+00,120;-00,071;-07,4260;+00,4410;-08,4380;+00,261900;+00,654234;-00,767017;+031,90;+101,17
-00,143;+00,120;-00,071;-07,8520;+00,4190;-08,9090;+00,166967;+00,661007;-00,824357;+031,90;+101,17
-00,143;+00,118;-00,073;-09,0160;+00,1640;-10,4470;+00,109251;+00,630548;-00,876782;+031,90;+101,15
-00,145;+00,120;-00,076;-10,7000;-00,1610;-12,1110;+00,056975;+00,704968;-00,935555;+031,90;+101,18
-00,146;+00,115;-00,078;-11,3630;-00,8020;-12,5520;-00,098817;+00,876326;-00,978720;+031,90;+101,18
-00,147;+00,114;-00,079;-11,1350;-01,0650;-11,5560;-00,329076;+01,023158;-00,956378;+031,90;+101,17
-00,148;+00,112;-00,081;-10,5930;-00,5380;-10,1580;-00,476675;+01,056777;-00,915684;+031,90;+101,18
-00,150;+00,112;-00,081;-09,9710;+00,1880;-09,2740;-00,457469;+01,020325;-00,842831;+031,90;+101,17
-00,152;+00,108;-00,083;-09,7630;+00,9170;-09,6220;-00,254829;+00,932292;-00,746792;+031,90;+101,18
-00,151;+00,108;-00,087;-09,9180;+00,6800;-11,4410;-00,005216;+00,916395;-00,617280;+031,90;+101,17
-00,152;+00,107;-00,085;-10,3620;+00,6180;-13,3360;+00,245219;+01,021921;-00,501746;+031,90;+101,18
-00,152;+00,107;-00,089;-09,8580;+01,0520;-11,7590;+00,504786;+01,139889;-00,429575;+031,90;+101,18
-00,152;+00,107;-00,094;-08,4420;+00,7300;-11,2850;+00,650718;+01,176964;-00,279068;+031,90;+101,18
-00,152;+00,107;-00,093;-42,3070;-09,8540;-89,4090;-01,542461;+08,503515;+00,299463;+031,90;+101,19
-00,152;+00,106;-00,107;-00,7770;-03,3240;-28,3090;+00,194257;+03,441655;-00,114292;+031,90;+101,18
-00,151;+00,106;-00,111;-10,9530;-07,7140;-12,8100;-01,208936;+03,681362;-00,152304;+031,90;+101,17
-00,151;+00,105;-00,115;+01,0000;+05,6960;-12,1990;-00,007469;+02,724261;+00,102146;+031,90;+101,16
-00,149;+00,109;-00,119;+05,7470;+02,1970;-09,2800;+00,122797;+01,901561;+00,378981;+031,90;+101,17
-00,149;+00,107;-00,123;-03,9170;-00,1450;-09,0380;+00,670844;+00,997308;+00,428745;+031,90;+101,17
-00,149;+00,109;-00,125;-04,8070;+01,8750;-09,4140;+00,361388;+00,835196;+00,230682;+031,90;+101,17
-00,148;+00,108;-00,127;-02,7890;+03,3380;-08,9860;+00,207578;+00,628678;-00,017326;+031,90;+101,18
-00,148;+00,111;-00,129;-02,9760;-00,7740;-07,4180;+00,176390;+00,772557;-00,098031;+031,90;+101,17
-00,148;+00,108;-00,132;-01,9420;-00,4240;-08,2890;+00,049942;+00,532409;-00,090192;+031,90;+101,17
-00,147;+00,108;-00,130;-01,6590;+00,8510;-08,4730;-00,020136;+00,062715;-00,066918;+031,90;+101,18
-00,148;+00,106;-00,128;-03,4980;+00,4020;-08,7280;-00,047247;-00,107917;-00,093515;+031,90;+101,18
-00,149;+00,110;-00,131;-03,8950;-00,1550;-08,7720;-00,022735;-00,067121;-00,092815;+031,90;+101,18
-00,149;+00,108;-00,130;-03,6960;-00,4730;-08,6550;-00,034878;-00,034342;-00,072109;+031,90;+101,17
-00,148;+00,109;-00,129;-03,6500;-00,4130;-08,5840;-00,025497;-00,014083;-00,035906;+031,90;+101,18
-00,148;+00,107;-00,128;-03,8090;-00,2990;-08,6540;-00,012910;+00,007825;-00,000930;+031,90;+101,17
-00,149;+00,108;-00,128;-03,8790;-00,0010;-08,8220;-00,009515;+00,053787;+00,015305;+031,90;+101,17
-00,148;+00,108;-00,130;-03,7910;+00,2920;-09,1260;+00,010132;+00,083773;+00,017289;+031,90;+101,17
-00,148;+00,109;-00,130;-03,6180;+00,4050;-09,1020;+00,019916;+00,085232;+00,008875;+031,90;+101,17
-00,148;+00,107;-00,130;-03,5460;+00,0900;-08,9420;-00,016532;+00,047084;-00,024879;+031,90;+101,16
-00,149;+00,108;-00,131;-03,9120;+00,2250;-09,2260;-00,042395;+00,043051;-00,026097;+031,90;+101,16
-00,147;+00,107;-00,130;-03,6940;-00,1140;-08,9950;-00,050471;+00,051720;-00,017091;+031,90;+101,17
-00,147;+00,108;-00,129;-03,8000;+00,0630;-08,9830;-00,052775;+00,066809;-00,002398;+031,90;+101,18
-00,147;+00,107;-00,131;-03,6060;-00,0320;-08,8360;-00,046645;+00,073661;+00,009752;+031,90;+101,17
-00,148;+00,108;-00,131;-03,5650;+00,1090;-08,8620;-00,036368;+00,065481;+00,019709;+031,90;+101,17
-00,147;+00,106;-00,131;-03,5040;+00,2040;-08,8470;-00,033937;+00,049063;+00,015726;+031,90;+101,17
-00,149;+00,109;-00,133;-03,5000;+00,1720;-08,8460;-00,033770;+00,035973;+00,011785;+031,90;+101,18
-00,147;+00,108;-00,132;-03,6400;+00,3880;-09,0160;-00,066466;+00,029879;-00,000300;+031,90;+101,17
-00,147;+00,110;-00,130;-03,6330;+00,1740;-08,8980;-00,094749;+00,044590;-00,009857;+031,90;+101,17
-00,149;+00,108;-00,133;-03,5200;+00,1090;-08,9400;-00,098119;+00,043473;-00,014434;+031,90;+101,17
-00,148;+00,111;-00,130;-03,7310;+00,1420;-09,0810;-00,092011;+00,034446;-00,012156;+031,90;+101,17
-00,147;+00,107;-00,127;-03,5920;+00,2660;-08,9420;-00,104796;+00,044160;-00,015689;+031,90;+101,17
-00,147;+00,111;-00,130;-03,5500;+00,0890;-08,8580;-00,104080;+00,041247;-00,016321;+031,90;+101,17
-00,148;+00,109;-00,133;-03,5820;+00,1650;-08,8520;-00,123519;+00,061949;-00,010925;+031,90;+101,17
-00,147;+00,108;-00,134;-03,6480;+00,1360;-08,8610;-00,134961;+00,081315;-00,004574;+031,90;+101,17
-00,148;+00,107;-00,131;-03,5080;+00,0460;-08,7170;-00,120247;+00,066349;-00,001146;+031,90;+101,17
-00,147;+00,108;-00,130;-03,4950;+00,1620;-08,9220;-00,100279;+00,034706;-00,000980;+031,90;+101,17
-00,148;+00,106;-00,129;-03,5850;+00,1640;-08,8700;-00,090167;+00,032583;+00,006065;+031,90;+101,18
-00,148;+00,110;-00,132;-03,4170;+00,2080;-08,8250;-00,068785;+00,012272;+00,006607;+031,90;+101,18
-00,146;+00,109;-00,128;-03,5420;+00,2230;-08,8630;-00,040140;-00,002214;+00,004998;+031,90;+101,18
-00,147;+00,110;-00,130;-03,5010;+00,2210;-08,7160;-00,013210;-00,021919;+00,004567;+031,90;+101,16
-00,147;+00,109;-00,130;-03,5380;+00,3330;-08,8380;+00,015569;-00,045013;-00,001912;+031,90;+101,18
-00,147;+00,110;-00,132;-03,7550;+00,3080;-08,9820;+00,021466;-00,031452;-00,005616;+031,90;+101,17
-00,146;+00,108;-00,132;-03,6110;+00,3320;-08,9270;+00,026126;-00,015846;-00,011403;+031,90;+101,18
-00,147;+00,110;-00,133;-03,5910;+00,1990;-08,8450;+00,038831;-00,014174;-00,013618;+031,90;+101,18
-00,147;+00,108;-00,131;-03,3700;+00,2550;-08,6910;+00,060809;-00,012824;-00,016696;+031,90;+101,17
-00,148;+00,110;-00,130;-03,4640;+00,2020;-08,7370;+00,085345;-00,042125;-00,019913;+031,90;+101,17
-00,147;+00,108;-00,130;-03,5740;+00,2100;-08,9060;+00,119193;-00,049536;-00,018561;+031,90;+101,17
-00,148;+00,110;-00,129;-03,6610;+00,1750;-08,9090;+00,147435;-00,041389;-00,022076;+031,90;+101,18
-00,148;+00,107;-00,131;-03,4820;+00,3340;-08,8030;+00,176351;-00,030291;-00,020196;+031,90;+101,17
-00,147;+00,107;-00,132;-03,6750;+00,1790;-08,9680;+00,182093;-00,027676;-00,020892;+031,90;+101,18
-00,147;+00,107;-00,131;-03,6230;+00,1960;-08,9560;+00,167345;-00,011220;-00,018088;+031,90;+101,17
-00,147;+00,109;-00,132;-03,5090;+00,3020;-08,9400;+00,152581;-00,024504;-00,018770;+031,90;+101,17
-00,147;+00,107;-00,130;-03,6510;+00,1270;-09,0210;+00,119764;-00,045630;-00,024137;+031,90;+101,17
-00,147;+00,110;-00,134;-03,6090;+00,1110;-08,8850;+00,102713;-00,043390;-00,023911;+031,90;+101,17
-00,147;+00,107;-00,133;-03,4730;+00,0950;-08,8300;+00,093240;-00,057438;-00,023801;+031,90;+101,17
-00,148;+00,109;-00,128;-03,6980;+00,1260;-08,9690;+00,079734;-00,067782;-00,024999;+031,90;+101,16
-00,147;+00,107;-00,132;-03,7490;+00,1580;-09,0250;+00,055848;-00,051382;-00,027026;+031,90;+101,17
-00,149;+00,108;-00,130;-03,6670;+00,1460;-08,9620;+00,032765;-00,046227;-00,036728;+031,90;+101,17
-00,147;+00,107;-00,130;-03,6300;+00,0300;-08,9060;+00,017581;-00,048669;-00,037538;+031,90;+101,17
-00,148;+00,110;-00,132;-03,6750;+00,0110;-08,9330;+00,016636;-00,050469;-00,031605;+031,90;+101,16
-00,147;+00,106;-00,131;-03,7500;+00,0280;-09,0170;+00,008106;-00,038275;-00,023819;+031,90;+101,17
-00,148;+00,110;-00,130;-03,7390;+00,0070;-09,0010;+00,005340;-00,027461;-00,019042;+031,90;+101,17
-00,148;+00,109;-00,131;-03,6500;-00,0100;-08,8860;+00,008561;-00,020653;-00,011921;+031,90;+101,17
-00,148;+00,112;-00,130;-03,5650;-00,0550;-08,8420;+00,018146;-00,026448;-00,005932;+031,90;+101,17
-00,147;+00,107;-00,129;-03,6040;-00,0490;-08,8670;+00,036093;-00,040230;-00,000618;+031,90;+101,17
-00,147;+00,110;-00,129;-03,6990;+00,0150;-08,9420;+00,047066;-00,039395;+00,004110;+031,90;+101,18
-00,147;+00,108;-00,130;-03,7090;+00,1060;-08,8570;+00,056185;-00,033182;+00,009367;+031,90;+101,17
-00,149;+00,108;-00,131;-03,6850;+00,1270;-08,8300;+00,061698;-00,026084;+00,007165;+031,90;+101,17
-00,147;+00,107;-00,129;-03,6150;+00,1290;-08,8040;+00,064742;-00,019328;-00,000007;+031,90;+101,18
-00,148;+00,110;-00,132;-03,5360;+00,0610;-08,7860;+00,059221;-00,037771;-00,005976;+031,90;+101,18
-00,149;+00,109;-00,128;-03,4540;-00,0660;-08,9080;+00,052781;-00,088390;+00,002804;+031,90;+101,16
-00,148;+00,107;-00,130;-03,2680;-00,1240;-08,8050;+00,069971;-00,150338;+00,029688;+031,90;+101,18
-00,147;+00,108;-00,130;-03,1260;-00,0770;-08,8060;+00,096070;-00,238023;+00,056076;+031,90;+101,18
-00,148;+00,108;-00,133;-03,3270;+00,2450;-08,7960;+00,034378;-00,341951;+00,062210;+031,90;+101,18
-00,147;+00,105;-00,131;-03,7330;+00,1140;-09,0330;-00,064722;-00,464888;+00,048024;+031,90;+101,18
-00,148;+00,111;-00,128;-03,6740;+00,7010;-09,0770;-00,139518;-00,639286;+00,003944;+031,90;+101,18
-00,147;+00,108;-00,126;-03,1280;+01,0400;-08,7170;-00,340518;-00,949819;-00,076169;+031,90;+101,18
-00,149;+00,109;-00,126;-03,3950;+00,7560;-08,8200;-00,733055;-01,412353;-00,156545;+031,90;+101,18
-00,150;+00,108;-00,119;-03,5230;-01,3160;-10,7110;-00,795430;-01,871931;-00,090274;+031,90;+101,18
-00,150;+00,109;-00,116;-02,8080;-00,3760;-10,7640;-00,733901;-02,471404;+00,028312;+031,90;+101,18
-00,150;+00,108;-00,109;-02,7130;-00,4170;-11,7670;-00,902389;-02,960432;+00,232213;+031,90;+101,17
-00,150;+00,110;-00,106;-04,3560;-04,6260;-18,2110;-01,985363;-03,298856;+00,557154;+031,90;+101,18
-00,151;+00,110;-00,092;-03,4220;-01,5840;-19,3730;-02,272720;-03,575526;+00,937865;+031,90;+101,18
-00,149;+00,112;-00,088;-24,3250;+08,0870;-22,1050;-02,389994;-03,623249;+01,398225;+031,90;+101,17
-00,146;+00,112;-00,077;-20,4120;+07,3440;-34,5910;-01,227105;-01,515135;+01,059063;+031,90;+101,17
-00,145;+00,117;-00,076;-12,9250;+08,2410;-21,2810;+00,028911;-00,608062;+01,181766;+031,90;+101,18
-00,143;+00,118;-00,072;-06,9090;+05,9930;-06,7000;+00,590389;-00,775698;+01,566973;+031,90;+101,17
-00,143;+00,120;-00,074;-09,7230;+01,8160;-09,8100;+00,321844;-01,372542;+01,818568;+031,90;+101,18
-00,139;+00,121;-00,071;-13,9450;-00,9270;-19,2150;-00,017782;-01,126572;+01,849624;+031,90;+101,18
-00,137;+00,125;-00,069;-13,1570;-01,2560;-19,2190;-00,210703;-00,470724;+01,623125;+031,90;+101,18
-00,134;+00,126;-00,069;-09,5490;-00,3840;-12,8330;-00,228617;-00,158425;+01,383683;+031,90;+101,18
-00,132;+00,131;-00,068;-07,7760;+00,0370;-08,9340;-00,155150;-00,247950;+01,161054;+031,90;+101,18
-00,132;+00,132;-00,067;-07,3950;-00,2120;-08,9180;-00,077276;-00,361627;+00,916862;+031,90;+101,17
-00,131;+00,133;-00,065;-07,2990;-00,9050;-10,2810;-00,085605;-00,286004;+00,658612;+031,90;+101,17
-00,129;+00,132;-00,063;-06,6480;-00,9180;-09,9870;-00,153686;-00,107179;+00,401454;+031,90;+101,18
-00,128;+00,136;-00,064;-05,2770;-00,5230;-08,1710;-00,251293;+00,038718;+00,192083;+031,90;+101,18
-00,128;+00,133;-00,065;-03,9440;+00,0700;-05,9490;-00,257763;+00,083211;-00,003589;+031,90;+101,18
-00,127;+00,133;-00,067;-03,1010;+00,3440;-04,6930;-00,179485;+00,060665;-00,183956;+031,90;+101,18
-00,127;+00,130;-00,063;-02,9120;+00,3230;-04,3860;-00,052441;+00,094739;-00,367496;+031,90;+101,18
-00,128;+00,131;-00,063;-02,1480;+00,7540;-03,3610;+00,069759;+00,183237;-00,524269;+031,90;+101,18
-00,130;+00,132;-00,064;-01,4730;+00,9440;-01,8280;+00,145209;+00,208823;-00,622596;+031,90;+101,17
-00,130;+00,130;-00,061;-01,0570;+01,2630;-00,9120;+00,181035;+00,185594;-00,678967;+031,90;+101,18
-00,131;+00,129;-00,065;-00,8320;+01,5980;-00,2190;+00,174048;+00,191743;-00,678305;+031,90;+101,17
-00,132;+00,129;-00,063;-00,4950;+01,8420;+00,4240;+00,196260;+00,197903;-00,649373;+031,90;+101,16
-00,133;+00,127;-00,064;-00,2940;+01,9660;+00,9430;+00,254715;+00,192628;-00,627220;+031,90;+101,16
-00,134;+00,127;-00,064;+00,0110;+01,8600;+01,6700;+00,298622;+00,206018;-00,597757;+031,90;+101,17
-00,134;+00,127;-00,066;+00,1710;+01,9770;+02,1570;+00,314956;+00,184983;-00,546402;+031,90;+101,17
-00,136;+00,126;-00,067;+00,0520;+02,1650;+02,6180;+00,350370;+00,172128;-00,489061;+031,90;+101,17
-00,136;+00,125;-00,066;-00,1670;+01,6510;+03,0980;+00,347114;+00,135928;-00,429765;+031,90;+101,17
-00,137;+00,127;-00,069;-00,1710;+00,9090;+03,7370;+00,291854;+00,074909;-00,415230;+031,90;+101,17
-00,138;+00,122;-00,066;-00,0340;+00,5630;+04,2480;+00,255136;-00,037386;-00,469915;+031,90;+101,17
-00,138;+00,125;-00,069;-00,2600;+00,5070;+04,6440;+00,204107;-00,109939;-00,544032;+031,90;+101,17
-00,139;+00,124;-00,069;-00,0920;+00,5000;+05,0580;+00,133272;-00,197830;-00,588985;+031,90;+101,17
-00,139;+00,121;-00,067;-00,4480;+00,5750;+04,4740;+00,063520;-00,307748;-00,619440;+031,90;+101,16
-00,139;+00,120;-00,069;-01,0100;+01,4000;+03,1720;+00,069864;-00,342437;-00,642188;+031,90;+101,17
-00,141;+00,120;-00,068;-01,5090;+02,4470;+02,0430;+00,142952;-00,306636;-00,610386;+031,90;+101,17
-00,141;+00,120;-00,066;-01,9420;+02,9680;+01,5550;+00,174784;-00,216741;-00,491406;+031,90;+101,17
-00,143;+00,120;-00,067;-02,2810;+03,3000;+01,5080;+00,154917;-00,136341;-00,312065;+031,90;+101,18
-00,142;+00,118;-00,065;-02,6750;+03,0900;+01,5190;+00,136011;-00,092467;-00,135951;+031,90;+101,17
-00,143;+00,119;-00,069;-02,9220;+02,0430;+01,2910;+00,128601;-00,086015;-00,030389;+031,90;+101,17
-00,143;+00,117;-00,066;-03,5490;+00,7730;+00,5760;+00,125847;-00,094779;-00,034882;+031,90;+101,17
-00,144;+00,119;-00,068;-04,1330;-00,7200;-00,9650;+00,064935;-00,047684;-00,119483;+031,90;+101,16
-00,144;+00,118;-00,067;-04,7460;-01,3330;-02,5750;+00,030591;+00,047830;-00,267233;+031,90;+101,18
-00,144;+00,118;-00,068;-04,7560;-01,0790;-03,1450;+00,053884;+00,158439;-00,431901;+031,90;+101,18
-00,143;+00,116;-00,067;-04,3010;-00,3890;-03,8610;+00,128473;+00,185652;-00,548224;+031,90;+101,17
-00,144;+00,118;-00,069;-04,7360;+00,4620;-05,5570;+00,198294;+00,228334;-00,605799;+031,90;+101,17
-00,145;+00,115;-00,070;-04,7970;+00,7520;-07,1450;+00,212043;+00,368391;-00,574018;+031,90;+101,18
-00,145;+00,115;-00,072;-04,7180;+00,8740;-07,8900;+00,188660;+00,508865;-00,507455;+031,90;+101,17
-00,147;+00,113;-00,074;-04,9000;+01,7920;-08,5720;+00,253147;+00,581107;-00,469996;+031,90;+101,17
-00,148;+00,113;-00,074;-06,2390;+01,4590;-10,6960;+00,351635;+00,604914;-00,419457;+031,90;+101,17
-00,148;+00,112;-00,075;-07,8120;+00,5520;-12,7630;+00,357718;+00,715154;-00,410057;+031,90;+101,18
-00,149;+00,113;-00,076;-08,9610;-00,0250;-14,4190;+00,308320;+00,865005;-00,422559;+031,90;+101,17
-00,149;+00,109;-00,080;-09,8840;-00,2550;-15,2150;+00,218288;+01,075113;-00,456803;+031,90;+101,17
-00,149;+00,108;-00,084;-10,0630;-00,6770;-15,0520;+00,076438;+01,269747;-00,466069;+031,90;+101,17
-00,150;+00,109;-00,087;-09,5280;-00,1820;-13,1440;-00,009832;+01,390250;-00,468909;+031,90;+101,17
-00,151;+00,110;-00,090;-08,7740;+01,2340;-11,6020;+00,054951;+01,300982;-00,430000;+031,90;+101,17
-00,151;+00,107;-00,089;-08,5100;+01,8630;-12,1900;+00,220179;+01,187341;-00,291090;+031,90;+101,17
